submission_id,Mapping,RT,age,comments,correctness,education,endTime,expected,experiment_id,f,gender,handedness,j,key1,key2,key_pressed,languages,picture,startDate,startTime,timeSpent,trial_number,trial_type
1984,incompatible,3240,66,,correct,Graduated College,1596034379393,small,163,large,female,right,small,f,j,j,German,images/small_stimulus.jpg,Wed Jul 29 2020 16:40:14 GMT+0200 (Mitteleuropäische Sommerzeit),1596033614828,12.74275,1,practice
1984,incompatible,675,66,,correct,Graduated College,1596034379393,small,163,large,female,right,small,f,j,j,German,images/small_stimulus.jpg,Wed Jul 29 2020 16:40:14 GMT+0200 (Mitteleuropäische Sommerzeit),1596033614828,12.74275,2,practice
1984,incompatible,957,66,,correct,Graduated College,1596034379393,large,163,large,female,right,small,f,j,f,German,images/large_stimulus.jpg,Wed Jul 29 2020 16:40:14 GMT+0200 (Mitteleuropäische Sommerzeit),1596033614828,12.74275,3,practice
1984,incompatible,390,66,,correct,Graduated College,1596034379393,small,163,large,female,right,small,f,j,j,German,images/small_stimulus.jpg,Wed Jul 29 2020 16:40:14 GMT+0200 (Mitteleuropäische Sommerzeit),1596033614828,12.74275,4,practice
1984,incompatible,511,66,,correct,Graduated College,1596034379393,small,163,large,female,right,small,f,j,j,German,images/small_stimulus.jpg,Wed Jul 29 2020 16:40:14 GMT+0200 (Mitteleuropäische Sommerzeit),1596033614828,12.74275,5,practice
1984,incompatible,691,66,,correct,Graduated College,1596034379393,large,163,large,female,right,small,f,j,f,German,images/large_stimulus.jpg,Wed Jul 29 2020 16:40:14 GMT+0200 (Mitteleuropäische Sommerzeit),1596033614828,12.74275,6,practice
1984,incompatible,604,66,,correct,Graduated College,1596034379393,large,163,large,female,right,small,f,j,f,German,images/large_stimulus.jpg,Wed Jul 29 2020 16:40:14 GMT+0200 (Mitteleuropäische Sommerzeit),1596033614828,12.74275,7,practice
1984,incompatible,595,66,,correct,Graduated College,1596034379393,small,163,large,female,right,small,f,j,j,German,images/small_stimulus.jpg,Wed Jul 29 2020 16:40:14 GMT+0200 (Mitteleuropäische Sommerzeit),1596033614828,12.74275,8,practice
1984,incompatible,456,66,,correct,Graduated College,1596034379393,large,163,large,female,right,small,f,j,f,German,images/large_stimulus.jpg,Wed Jul 29 2020 16:40:14 GMT+0200 (Mitteleuropäische Sommerzeit),1596033614828,12.74275,9,practice
1984,incompatible,675,66,,correct,Graduated College,1596034379393,large,163,large,female,right,small,f,j,f,German,images/large_stimulus.jpg,Wed Jul 29 2020 16:40:14 GMT+0200 (Mitteleuropäische Sommerzeit),1596033614828,12.74275,10,practice
1984,incompatible,689,66,,correct,Graduated College,1596034379393,large,163,large,female,right,small,f,j,f,German,images/large_stimulus.jpg,Wed Jul 29 2020 16:40:14 GMT+0200 (Mitteleuropäische Sommerzeit),1596033614828,12.74275,1,main
1984,incompatible,764,66,,correct,Graduated College,1596034379393,large,163,large,female,right,small,f,j,f,German,images/large_stimulus.jpg,Wed Jul 29 2020 16:40:14 GMT+0200 (Mitteleuropäische Sommerzeit),1596033614828,12.74275,2,main
1984,incompatible,641,66,,correct,Graduated College,1596034379393,small,163,large,female,right,small,f,j,j,German,images/small_stimulus.jpg,Wed Jul 29 2020 16:40:14 GMT+0200 (Mitteleuropäische Sommerzeit),1596033614828,12.74275,3,main
1984,incompatible,628,66,,correct,Graduated College,1596034379393,large,163,large,female,right,small,f,j,f,German,images/large_stimulus.jpg,Wed Jul 29 2020 16:40:14 GMT+0200 (Mitteleuropäische Sommerzeit),1596033614828,12.74275,4,main
1984,incompatible,441,66,,correct,Graduated College,1596034379393,small,163,large,female,right,small,f,j,j,German,images/small_stimulus.jpg,Wed Jul 29 2020 16:40:14 GMT+0200 (Mitteleuropäische Sommerzeit),1596033614828,12.74275,5,main
1984,incompatible,553,66,,correct,Graduated College,1596034379393,large,163,large,female,right,small,f,j,f,German,images/large_stimulus.jpg,Wed Jul 29 2020 16:40:14 GMT+0200 (Mitteleuropäische Sommerzeit),1596033614828,12.74275,6,main
1984,incompatible,835,66,,correct,Graduated College,1596034379393,large,163,large,female,right,small,f,j,f,German,images/large_stimulus.jpg,Wed Jul 29 2020 16:40:14 GMT+0200 (Mitteleuropäische Sommerzeit),1596033614828,12.74275,7,main
1984,incompatible,493,66,,correct,Graduated College,1596034379393,small,163,large,female,right,small,f,j,j,German,images/small_stimulus.jpg,Wed Jul 29 2020 16:40:14 GMT+0200 (Mitteleuropäische Sommerzeit),1596033614828,12.74275,8,main
1984,incompatible,609,66,,correct,Graduated College,1596034379393,small,163,large,female,right,small,f,j,j,German,images/small_stimulus.jpg,Wed Jul 29 2020 16:40:14 GMT+0200 (Mitteleuropäische Sommerzeit),1596033614828,12.74275,9,main
1984,incompatible,402,66,,correct,Graduated College,1596034379393,large,163,large,female,right,small,f,j,f,German,images/large_stimulus.jpg,Wed Jul 29 2020 16:40:14 GMT+0200 (Mitteleuropäische Sommerzeit),1596033614828,12.74275,10,main
1984,incompatible,647,66,,correct,Graduated College,1596034379393,large,163,large,female,right,small,f,j,f,German,images/large_stimulus.jpg,Wed Jul 29 2020 16:40:14 GMT+0200 (Mitteleuropäische Sommerzeit),1596033614828,12.74275,11,main
1984,incompatible,439,66,,correct,Graduated College,1596034379393,small,163,large,female,right,small,f,j,j,German,images/small_stimulus.jpg,Wed Jul 29 2020 16:40:14 GMT+0200 (Mitteleuropäische Sommerzeit),1596033614828,12.74275,12,main
1984,incompatible,437,66,,correct,Graduated College,1596034379393,small,163,large,female,right,small,f,j,j,German,images/small_stimulus.jpg,Wed Jul 29 2020 16:40:14 GMT+0200 (Mitteleuropäische Sommerzeit),1596033614828,12.74275,13,main
1984,incompatible,374,66,,incorrect,Graduated College,1596034379393,small,163,large,female,right,small,f,j,f,German,images/small_stimulus.jpg,Wed Jul 29 2020 16:40:14 GMT+0200 (Mitteleuropäische Sommerzeit),1596033614828,12.74275,14,main
1984,incompatible,748,66,,correct,Graduated College,1596034379393,large,163,large,female,right,small,f,j,f,German,images/large_stimulus.jpg,Wed Jul 29 2020 16:40:14 GMT+0200 (Mitteleuropäische Sommerzeit),1596033614828,12.74275,15,main
1984,incompatible,561,66,,correct,Graduated College,1596034379393,small,163,large,female,right,small,f,j,j,German,images/small_stimulus.jpg,Wed Jul 29 2020 16:40:14 GMT+0200 (Mitteleuropäische Sommerzeit),1596033614828,12.74275,16,main
1984,incompatible,652,66,,correct,Graduated College,1596034379393,small,163,large,female,right,small,f,j,j,German,images/small_stimulus.jpg,Wed Jul 29 2020 16:40:14 GMT+0200 (Mitteleuropäische Sommerzeit),1596033614828,12.74275,17,main
1984,incompatible,578,66,,correct,Graduated College,1596034379393,small,163,large,female,right,small,f,j,j,German,images/small_stimulus.jpg,Wed Jul 29 2020 16:40:14 GMT+0200 (Mitteleuropäische Sommerzeit),1596033614828,12.74275,18,main
1984,incompatible,432,66,,correct,Graduated College,1596034379393,large,163,large,female,right,small,f,j,f,German,images/large_stimulus.jpg,Wed Jul 29 2020 16:40:14 GMT+0200 (Mitteleuropäische Sommerzeit),1596033614828,12.74275,19,main
1984,incompatible,619,66,,correct,Graduated College,1596034379393,small,163,large,female,right,small,f,j,j,German,images/small_stimulus.jpg,Wed Jul 29 2020 16:40:14 GMT+0200 (Mitteleuropäische Sommerzeit),1596033614828,12.74275,20,main
1984,incompatible,452,66,,correct,Graduated College,1596034379393,small,163,large,female,right,small,f,j,j,German,images/small_stimulus.jpg,Wed Jul 29 2020 16:40:14 GMT+0200 (Mitteleuropäische Sommerzeit),1596033614828,12.74275,21,main
1984,incompatible,655,66,,correct,Graduated College,1596034379393,large,163,large,female,right,small,f,j,f,German,images/large_stimulus.jpg,Wed Jul 29 2020 16:40:14 GMT+0200 (Mitteleuropäische Sommerzeit),1596033614828,12.74275,22,main
1984,incompatible,410,66,,correct,Graduated College,1596034379393,small,163,large,female,right,small,f,j,j,German,images/small_stimulus.jpg,Wed Jul 29 2020 16:40:14 GMT+0200 (Mitteleuropäische Sommerzeit),1596033614828,12.74275,23,main
1984,incompatible,519,66,,correct,Graduated College,1596034379393,small,163,large,female,right,small,f,j,j,German,images/small_stimulus.jpg,Wed Jul 29 2020 16:40:14 GMT+0200 (Mitteleuropäische Sommerzeit),1596033614828,12.74275,24,main
1984,incompatible,437,66,,correct,Graduated College,1596034379393,large,163,large,female,right,small,f,j,f,German,images/large_stimulus.jpg,Wed Jul 29 2020 16:40:14 GMT+0200 (Mitteleuropäische Sommerzeit),1596033614828,12.74275,25,main
1984,incompatible,623,66,,correct,Graduated College,1596034379393,large,163,large,female,right,small,f,j,f,German,images/large_stimulus.jpg,Wed Jul 29 2020 16:40:14 GMT+0200 (Mitteleuropäische Sommerzeit),1596033614828,12.74275,26,main
1984,incompatible,782,66,,correct,Graduated College,1596034379393,small,163,large,female,right,small,f,j,j,German,images/small_stimulus.jpg,Wed Jul 29 2020 16:40:14 GMT+0200 (Mitteleuropäische Sommerzeit),1596033614828,12.74275,27,main
1984,incompatible,660,66,,correct,Graduated College,1596034379393,large,163,large,female,right,small,f,j,f,German,images/large_stimulus.jpg,Wed Jul 29 2020 16:40:14 GMT+0200 (Mitteleuropäische Sommerzeit),1596033614828,12.74275,28,main
1984,incompatible,537,66,,correct,Graduated College,1596034379393,large,163,large,female,right,small,f,j,f,German,images/large_stimulus.jpg,Wed Jul 29 2020 16:40:14 GMT+0200 (Mitteleuropäische Sommerzeit),1596033614828,12.74275,29,main
1984,incompatible,597,66,,correct,Graduated College,1596034379393,large,163,large,female,right,small,f,j,f,German,images/large_stimulus.jpg,Wed Jul 29 2020 16:40:14 GMT+0200 (Mitteleuropäische Sommerzeit),1596033614828,12.74275,30,main
1984,incompatible,544,66,,correct,Graduated College,1596034379393,large,163,large,female,right,small,f,j,f,German,images/large_stimulus.jpg,Wed Jul 29 2020 16:40:14 GMT+0200 (Mitteleuropäische Sommerzeit),1596033614828,12.74275,31,main
1984,incompatible,501,66,,correct,Graduated College,1596034379393,small,163,large,female,right,small,f,j,j,German,images/small_stimulus.jpg,Wed Jul 29 2020 16:40:14 GMT+0200 (Mitteleuropäische Sommerzeit),1596033614828,12.74275,32,main
1984,incompatible,431,66,,correct,Graduated College,1596034379393,small,163,large,female,right,small,f,j,j,German,images/small_stimulus.jpg,Wed Jul 29 2020 16:40:14 GMT+0200 (Mitteleuropäische Sommerzeit),1596033614828,12.74275,33,main
1984,incompatible,457,66,,correct,Graduated College,1596034379393,small,163,large,female,right,small,f,j,j,German,images/small_stimulus.jpg,Wed Jul 29 2020 16:40:14 GMT+0200 (Mitteleuropäische Sommerzeit),1596033614828,12.74275,34,main
1984,incompatible,582,66,,correct,Graduated College,1596034379393,small,163,large,female,right,small,f,j,j,German,images/small_stimulus.jpg,Wed Jul 29 2020 16:40:14 GMT+0200 (Mitteleuropäische Sommerzeit),1596033614828,12.74275,35,main
1984,incompatible,415,66,,correct,Graduated College,1596034379393,large,163,large,female,right,small,f,j,f,German,images/large_stimulus.jpg,Wed Jul 29 2020 16:40:14 GMT+0200 (Mitteleuropäische Sommerzeit),1596033614828,12.74275,36,main
1984,incompatible,619,66,,correct,Graduated College,1596034379393,large,163,large,female,right,small,f,j,f,German,images/large_stimulus.jpg,Wed Jul 29 2020 16:40:14 GMT+0200 (Mitteleuropäische Sommerzeit),1596033614828,12.74275,37,main
1984,incompatible,699,66,,correct,Graduated College,1596034379393,small,163,large,female,right,small,f,j,j,German,images/small_stimulus.jpg,Wed Jul 29 2020 16:40:14 GMT+0200 (Mitteleuropäische Sommerzeit),1596033614828,12.74275,38,main
1984,incompatible,477,66,,correct,Graduated College,1596034379393,large,163,large,female,right,small,f,j,f,German,images/large_stimulus.jpg,Wed Jul 29 2020 16:40:14 GMT+0200 (Mitteleuropäische Sommerzeit),1596033614828,12.74275,39,main
1984,incompatible,575,66,,correct,Graduated College,1596034379393,small,163,large,female,right,small,f,j,j,German,images/small_stimulus.jpg,Wed Jul 29 2020 16:40:14 GMT+0200 (Mitteleuropäische Sommerzeit),1596033614828,12.74275,40,main
1984,incompatible,589,66,,correct,Graduated College,1596034379393,small,163,large,female,right,small,f,j,j,German,images/small_stimulus.jpg,Wed Jul 29 2020 16:40:14 GMT+0200 (Mitteleuropäische Sommerzeit),1596033614828,12.74275,41,main
1984,incompatible,571,66,,correct,Graduated College,1596034379393,small,163,large,female,right,small,f,j,j,German,images/small_stimulus.jpg,Wed Jul 29 2020 16:40:14 GMT+0200 (Mitteleuropäische Sommerzeit),1596033614828,12.74275,42,main
1984,incompatible,478,66,,correct,Graduated College,1596034379393,small,163,large,female,right,small,f,j,j,German,images/small_stimulus.jpg,Wed Jul 29 2020 16:40:14 GMT+0200 (Mitteleuropäische Sommerzeit),1596033614828,12.74275,43,main
1984,incompatible,656,66,,correct,Graduated College,1596034379393,large,163,large,female,right,small,f,j,f,German,images/large_stimulus.jpg,Wed Jul 29 2020 16:40:14 GMT+0200 (Mitteleuropäische Sommerzeit),1596033614828,12.74275,44,main
1984,incompatible,495,66,,correct,Graduated College,1596034379393,large,163,large,female,right,small,f,j,f,German,images/large_stimulus.jpg,Wed Jul 29 2020 16:40:14 GMT+0200 (Mitteleuropäische Sommerzeit),1596033614828,12.74275,45,main
1984,incompatible,434,66,,correct,Graduated College,1596034379393,small,163,large,female,right,small,f,j,j,German,images/small_stimulus.jpg,Wed Jul 29 2020 16:40:14 GMT+0200 (Mitteleuropäische Sommerzeit),1596033614828,12.74275,46,main
1984,incompatible,441,66,,correct,Graduated College,1596034379393,large,163,large,female,right,small,f,j,f,German,images/large_stimulus.jpg,Wed Jul 29 2020 16:40:14 GMT+0200 (Mitteleuropäische Sommerzeit),1596033614828,12.74275,47,main
1984,incompatible,449,66,,correct,Graduated College,1596034379393,small,163,large,female,right,small,f,j,j,German,images/small_stimulus.jpg,Wed Jul 29 2020 16:40:14 GMT+0200 (Mitteleuropäische Sommerzeit),1596033614828,12.74275,48,main
1984,incompatible,482,66,,correct,Graduated College,1596034379393,large,163,large,female,right,small,f,j,f,German,images/large_stimulus.jpg,Wed Jul 29 2020 16:40:14 GMT+0200 (Mitteleuropäische Sommerzeit),1596033614828,12.74275,49,main
1984,incompatible,680,66,,correct,Graduated College,1596034379393,large,163,large,female,right,small,f,j,f,German,images/large_stimulus.jpg,Wed Jul 29 2020 16:40:14 GMT+0200 (Mitteleuropäische Sommerzeit),1596033614828,12.74275,50,main
1984,incompatible,704,66,,correct,Graduated College,1596034379393,large,163,large,female,right,small,f,j,f,German,images/large_stimulus.jpg,Wed Jul 29 2020 16:40:14 GMT+0200 (Mitteleuropäische Sommerzeit),1596033614828,12.74275,51,main
1984,incompatible,438,66,,correct,Graduated College,1596034379393,large,163,large,female,right,small,f,j,f,German,images/large_stimulus.jpg,Wed Jul 29 2020 16:40:14 GMT+0200 (Mitteleuropäische Sommerzeit),1596033614828,12.74275,52,main
1984,incompatible,591,66,,correct,Graduated College,1596034379393,large,163,large,female,right,small,f,j,f,German,images/large_stimulus.jpg,Wed Jul 29 2020 16:40:14 GMT+0200 (Mitteleuropäische Sommerzeit),1596033614828,12.74275,53,main
1984,incompatible,490,66,,correct,Graduated College,1596034379393,large,163,large,female,right,small,f,j,f,German,images/large_stimulus.jpg,Wed Jul 29 2020 16:40:14 GMT+0200 (Mitteleuropäische Sommerzeit),1596033614828,12.74275,54,main
1984,incompatible,458,66,,correct,Graduated College,1596034379393,large,163,large,female,right,small,f,j,f,German,images/large_stimulus.jpg,Wed Jul 29 2020 16:40:14 GMT+0200 (Mitteleuropäische Sommerzeit),1596033614828,12.74275,55,main
1984,incompatible,450,66,,correct,Graduated College,1596034379393,small,163,large,female,right,small,f,j,j,German,images/small_stimulus.jpg,Wed Jul 29 2020 16:40:14 GMT+0200 (Mitteleuropäische Sommerzeit),1596033614828,12.74275,56,main
1984,incompatible,477,66,,correct,Graduated College,1596034379393,large,163,large,female,right,small,f,j,f,German,images/large_stimulus.jpg,Wed Jul 29 2020 16:40:14 GMT+0200 (Mitteleuropäische Sommerzeit),1596033614828,12.74275,57,main
1984,incompatible,587,66,,correct,Graduated College,1596034379393,small,163,large,female,right,small,f,j,j,German,images/small_stimulus.jpg,Wed Jul 29 2020 16:40:14 GMT+0200 (Mitteleuropäische Sommerzeit),1596033614828,12.74275,58,main
1984,incompatible,716,66,,correct,Graduated College,1596034379393,small,163,large,female,right,small,f,j,j,German,images/small_stimulus.jpg,Wed Jul 29 2020 16:40:14 GMT+0200 (Mitteleuropäische Sommerzeit),1596033614828,12.74275,59,main
1984,incompatible,498,66,,correct,Graduated College,1596034379393,small,163,large,female,right,small,f,j,j,German,images/small_stimulus.jpg,Wed Jul 29 2020 16:40:14 GMT+0200 (Mitteleuropäische Sommerzeit),1596033614828,12.74275,60,main
1984,compatible,2686,66,,correct,Graduated College,1596034379393,small,163,small,female,right,large,f,j,f,German,images/small_stimulus.jpg,Wed Jul 29 2020 16:40:14 GMT+0200 (Mitteleuropäische Sommerzeit),1596033614828,12.74275,1,practice
1984,compatible,741,66,,correct,Graduated College,1596034379393,small,163,small,female,right,large,f,j,f,German,images/small_stimulus.jpg,Wed Jul 29 2020 16:40:14 GMT+0200 (Mitteleuropäische Sommerzeit),1596033614828,12.74275,2,practice
1984,compatible,737,66,,correct,Graduated College,1596034379393,small,163,small,female,right,large,f,j,f,German,images/small_stimulus.jpg,Wed Jul 29 2020 16:40:14 GMT+0200 (Mitteleuropäische Sommerzeit),1596033614828,12.74275,3,practice
1984,compatible,537,66,,correct,Graduated College,1596034379393,small,163,small,female,right,large,f,j,f,German,images/small_stimulus.jpg,Wed Jul 29 2020 16:40:14 GMT+0200 (Mitteleuropäische Sommerzeit),1596033614828,12.74275,4,practice
1984,compatible,562,66,,correct,Graduated College,1596034379393,large,163,small,female,right,large,f,j,j,German,images/large_stimulus.jpg,Wed Jul 29 2020 16:40:14 GMT+0200 (Mitteleuropäische Sommerzeit),1596033614828,12.74275,5,practice
1984,compatible,573,66,,correct,Graduated College,1596034379393,large,163,small,female,right,large,f,j,j,German,images/large_stimulus.jpg,Wed Jul 29 2020 16:40:14 GMT+0200 (Mitteleuropäische Sommerzeit),1596033614828,12.74275,6,practice
1984,compatible,925,66,,correct,Graduated College,1596034379393,small,163,small,female,right,large,f,j,f,German,images/small_stimulus.jpg,Wed Jul 29 2020 16:40:14 GMT+0200 (Mitteleuropäische Sommerzeit),1596033614828,12.74275,7,practice
1984,compatible,969,66,,correct,Graduated College,1596034379393,small,163,small,female,right,large,f,j,f,German,images/small_stimulus.jpg,Wed Jul 29 2020 16:40:14 GMT+0200 (Mitteleuropäische Sommerzeit),1596033614828,12.74275,8,practice
1984,compatible,677,66,,correct,Graduated College,1596034379393,small,163,small,female,right,large,f,j,f,German,images/small_stimulus.jpg,Wed Jul 29 2020 16:40:14 GMT+0200 (Mitteleuropäische Sommerzeit),1596033614828,12.74275,9,practice
1984,compatible,554,66,,correct,Graduated College,1596034379393,small,163,small,female,right,large,f,j,f,German,images/small_stimulus.jpg,Wed Jul 29 2020 16:40:14 GMT+0200 (Mitteleuropäische Sommerzeit),1596033614828,12.74275,10,practice
1984,compatible,560,66,,correct,Graduated College,1596034379393,small,163,small,female,right,large,f,j,f,German,images/small_stimulus.jpg,Wed Jul 29 2020 16:40:14 GMT+0200 (Mitteleuropäische Sommerzeit),1596033614828,12.74275,11,practice
1984,compatible,468,66,,correct,Graduated College,1596034379393,large,163,small,female,right,large,f,j,j,German,images/large_stimulus.jpg,Wed Jul 29 2020 16:40:14 GMT+0200 (Mitteleuropäische Sommerzeit),1596033614828,12.74275,12,practice
1984,compatible,781,66,,correct,Graduated College,1596034379393,large,163,small,female,right,large,f,j,j,German,images/large_stimulus.jpg,Wed Jul 29 2020 16:40:14 GMT+0200 (Mitteleuropäische Sommerzeit),1596033614828,12.74275,13,practice
1984,compatible,647,66,,correct,Graduated College,1596034379393,large,163,small,female,right,large,f,j,j,German,images/large_stimulus.jpg,Wed Jul 29 2020 16:40:14 GMT+0200 (Mitteleuropäische Sommerzeit),1596033614828,12.74275,14,practice
1984,compatible,587,66,,correct,Graduated College,1596034379393,small,163,small,female,right,large,f,j,f,German,images/small_stimulus.jpg,Wed Jul 29 2020 16:40:14 GMT+0200 (Mitteleuropäische Sommerzeit),1596033614828,12.74275,15,practice
1984,compatible,1708,66,,correct,Graduated College,1596034379393,large,163,small,female,right,large,f,j,j,German,images/large_stimulus.jpg,Wed Jul 29 2020 16:40:14 GMT+0200 (Mitteleuropäische Sommerzeit),1596033614828,12.74275,16,practice
1984,compatible,552,66,,correct,Graduated College,1596034379393,large,163,small,female,right,large,f,j,j,German,images/large_stimulus.jpg,Wed Jul 29 2020 16:40:14 GMT+0200 (Mitteleuropäische Sommerzeit),1596033614828,12.74275,17,practice
1984,compatible,542,66,,correct,Graduated College,1596034379393,large,163,small,female,right,large,f,j,j,German,images/large_stimulus.jpg,Wed Jul 29 2020 16:40:14 GMT+0200 (Mitteleuropäische Sommerzeit),1596033614828,12.74275,18,practice
1984,compatible,431,66,,correct,Graduated College,1596034379393,small,163,small,female,right,large,f,j,f,German,images/small_stimulus.jpg,Wed Jul 29 2020 16:40:14 GMT+0200 (Mitteleuropäische Sommerzeit),1596033614828,12.74275,19,practice
1984,compatible,543,66,,correct,Graduated College,1596034379393,large,163,small,female,right,large,f,j,j,German,images/large_stimulus.jpg,Wed Jul 29 2020 16:40:14 GMT+0200 (Mitteleuropäische Sommerzeit),1596033614828,12.74275,20,practice
1984,compatible,2577,66,,correct,Graduated College,1596034379393,large,163,small,female,right,large,f,j,j,German,images/large_stimulus.jpg,Wed Jul 29 2020 16:40:14 GMT+0200 (Mitteleuropäische Sommerzeit),1596033614828,12.74275,1,main
1984,compatible,1058,66,,correct,Graduated College,1596034379393,small,163,small,female,right,large,f,j,f,German,images/small_stimulus.jpg,Wed Jul 29 2020 16:40:14 GMT+0200 (Mitteleuropäische Sommerzeit),1596033614828,12.74275,2,main
1984,compatible,484,66,,correct,Graduated College,1596034379393,small,163,small,female,right,large,f,j,f,German,images/small_stimulus.jpg,Wed Jul 29 2020 16:40:14 GMT+0200 (Mitteleuropäische Sommerzeit),1596033614828,12.74275,3,main
1984,compatible,501,66,,correct,Graduated College,1596034379393,large,163,small,female,right,large,f,j,j,German,images/large_stimulus.jpg,Wed Jul 29 2020 16:40:14 GMT+0200 (Mitteleuropäische Sommerzeit),1596033614828,12.74275,4,main
1984,compatible,1872,66,,correct,Graduated College,1596034379393,small,163,small,female,right,large,f,j,f,German,images/small_stimulus.jpg,Wed Jul 29 2020 16:40:14 GMT+0200 (Mitteleuropäische Sommerzeit),1596033614828,12.74275,5,main
1984,compatible,4665,66,,correct,Graduated College,1596034379393,large,163,small,female,right,large,f,j,j,German,images/large_stimulus.jpg,Wed Jul 29 2020 16:40:14 GMT+0200 (Mitteleuropäische Sommerzeit),1596033614828,12.74275,6,main
1984,compatible,1042,66,,correct,Graduated College,1596034379393,small,163,small,female,right,large,f,j,f,German,images/small_stimulus.jpg,Wed Jul 29 2020 16:40:14 GMT+0200 (Mitteleuropäische Sommerzeit),1596033614828,12.74275,7,main
1984,compatible,1105,66,,correct,Graduated College,1596034379393,large,163,small,female,right,large,f,j,j,German,images/large_stimulus.jpg,Wed Jul 29 2020 16:40:14 GMT+0200 (Mitteleuropäische Sommerzeit),1596033614828,12.74275,8,main
1984,compatible,979,66,,correct,Graduated College,1596034379393,small,163,small,female,right,large,f,j,f,German,images/small_stimulus.jpg,Wed Jul 29 2020 16:40:14 GMT+0200 (Mitteleuropäische Sommerzeit),1596033614828,12.74275,9,main
1984,compatible,578,66,,correct,Graduated College,1596034379393,large,163,small,female,right,large,f,j,j,German,images/large_stimulus.jpg,Wed Jul 29 2020 16:40:14 GMT+0200 (Mitteleuropäische Sommerzeit),1596033614828,12.74275,10,main
1984,compatible,1333,66,,correct,Graduated College,1596034379393,large,163,small,female,right,large,f,j,j,German,images/large_stimulus.jpg,Wed Jul 29 2020 16:40:14 GMT+0200 (Mitteleuropäische Sommerzeit),1596033614828,12.74275,11,main
1984,compatible,646,66,,correct,Graduated College,1596034379393,large,163,small,female,right,large,f,j,j,German,images/large_stimulus.jpg,Wed Jul 29 2020 16:40:14 GMT+0200 (Mitteleuropäische Sommerzeit),1596033614828,12.74275,12,main
1984,compatible,591,66,,correct,Graduated College,1596034379393,large,163,small,female,right,large,f,j,j,German,images/large_stimulus.jpg,Wed Jul 29 2020 16:40:14 GMT+0200 (Mitteleuropäische Sommerzeit),1596033614828,12.74275,13,main
1984,compatible,549,66,,correct,Graduated College,1596034379393,large,163,small,female,right,large,f,j,j,German,images/large_stimulus.jpg,Wed Jul 29 2020 16:40:14 GMT+0200 (Mitteleuropäische Sommerzeit),1596033614828,12.74275,14,main
1984,compatible,465,66,,correct,Graduated College,1596034379393,small,163,small,female,right,large,f,j,f,German,images/small_stimulus.jpg,Wed Jul 29 2020 16:40:14 GMT+0200 (Mitteleuropäische Sommerzeit),1596033614828,12.74275,15,main
1984,compatible,712,66,,correct,Graduated College,1596034379393,large,163,small,female,right,large,f,j,j,German,images/large_stimulus.jpg,Wed Jul 29 2020 16:40:14 GMT+0200 (Mitteleuropäische Sommerzeit),1596033614828,12.74275,16,main
1984,compatible,511,66,,correct,Graduated College,1596034379393,small,163,small,female,right,large,f,j,f,German,images/small_stimulus.jpg,Wed Jul 29 2020 16:40:14 GMT+0200 (Mitteleuropäische Sommerzeit),1596033614828,12.74275,17,main
1984,compatible,527,66,,correct,Graduated College,1596034379393,large,163,small,female,right,large,f,j,j,German,images/large_stimulus.jpg,Wed Jul 29 2020 16:40:14 GMT+0200 (Mitteleuropäische Sommerzeit),1596033614828,12.74275,18,main
1984,compatible,497,66,,correct,Graduated College,1596034379393,small,163,small,female,right,large,f,j,f,German,images/small_stimulus.jpg,Wed Jul 29 2020 16:40:14 GMT+0200 (Mitteleuropäische Sommerzeit),1596033614828,12.74275,19,main
1984,compatible,725,66,,correct,Graduated College,1596034379393,small,163,small,female,right,large,f,j,f,German,images/small_stimulus.jpg,Wed Jul 29 2020 16:40:14 GMT+0200 (Mitteleuropäische Sommerzeit),1596033614828,12.74275,20,main
1984,compatible,714,66,,correct,Graduated College,1596034379393,small,163,small,female,right,large,f,j,f,German,images/small_stimulus.jpg,Wed Jul 29 2020 16:40:14 GMT+0200 (Mitteleuropäische Sommerzeit),1596033614828,12.74275,21,main
1984,compatible,550,66,,correct,Graduated College,1596034379393,small,163,small,female,right,large,f,j,f,German,images/small_stimulus.jpg,Wed Jul 29 2020 16:40:14 GMT+0200 (Mitteleuropäische Sommerzeit),1596033614828,12.74275,22,main
1984,compatible,451,66,,correct,Graduated College,1596034379393,large,163,small,female,right,large,f,j,j,German,images/large_stimulus.jpg,Wed Jul 29 2020 16:40:14 GMT+0200 (Mitteleuropäische Sommerzeit),1596033614828,12.74275,23,main
1984,compatible,405,66,,correct,Graduated College,1596034379393,small,163,small,female,right,large,f,j,f,German,images/small_stimulus.jpg,Wed Jul 29 2020 16:40:14 GMT+0200 (Mitteleuropäische Sommerzeit),1596033614828,12.74275,24,main
1984,compatible,507,66,,correct,Graduated College,1596034379393,small,163,small,female,right,large,f,j,f,German,images/small_stimulus.jpg,Wed Jul 29 2020 16:40:14 GMT+0200 (Mitteleuropäische Sommerzeit),1596033614828,12.74275,25,main
1984,compatible,660,66,,correct,Graduated College,1596034379393,small,163,small,female,right,large,f,j,f,German,images/small_stimulus.jpg,Wed Jul 29 2020 16:40:14 GMT+0200 (Mitteleuropäische Sommerzeit),1596033614828,12.74275,26,main
1984,compatible,664,66,,correct,Graduated College,1596034379393,small,163,small,female,right,large,f,j,f,German,images/small_stimulus.jpg,Wed Jul 29 2020 16:40:14 GMT+0200 (Mitteleuropäische Sommerzeit),1596033614828,12.74275,27,main
1984,compatible,652,66,,correct,Graduated College,1596034379393,large,163,small,female,right,large,f,j,j,German,images/large_stimulus.jpg,Wed Jul 29 2020 16:40:14 GMT+0200 (Mitteleuropäische Sommerzeit),1596033614828,12.74275,28,main
1984,compatible,602,66,,correct,Graduated College,1596034379393,large,163,small,female,right,large,f,j,j,German,images/large_stimulus.jpg,Wed Jul 29 2020 16:40:14 GMT+0200 (Mitteleuropäische Sommerzeit),1596033614828,12.74275,29,main
1984,compatible,508,66,,correct,Graduated College,1596034379393,large,163,small,female,right,large,f,j,j,German,images/large_stimulus.jpg,Wed Jul 29 2020 16:40:14 GMT+0200 (Mitteleuropäische Sommerzeit),1596033614828,12.74275,30,main
1984,compatible,509,66,,correct,Graduated College,1596034379393,large,163,small,female,right,large,f,j,j,German,images/large_stimulus.jpg,Wed Jul 29 2020 16:40:14 GMT+0200 (Mitteleuropäische Sommerzeit),1596033614828,12.74275,31,main
1984,compatible,618,66,,correct,Graduated College,1596034379393,large,163,small,female,right,large,f,j,j,German,images/large_stimulus.jpg,Wed Jul 29 2020 16:40:14 GMT+0200 (Mitteleuropäische Sommerzeit),1596033614828,12.74275,32,main
1984,compatible,495,66,,correct,Graduated College,1596034379393,large,163,small,female,right,large,f,j,j,German,images/large_stimulus.jpg,Wed Jul 29 2020 16:40:14 GMT+0200 (Mitteleuropäische Sommerzeit),1596033614828,12.74275,33,main
1984,compatible,607,66,,correct,Graduated College,1596034379393,small,163,small,female,right,large,f,j,f,German,images/small_stimulus.jpg,Wed Jul 29 2020 16:40:14 GMT+0200 (Mitteleuropäische Sommerzeit),1596033614828,12.74275,34,main
1984,compatible,704,66,,correct,Graduated College,1596034379393,small,163,small,female,right,large,f,j,f,German,images/small_stimulus.jpg,Wed Jul 29 2020 16:40:14 GMT+0200 (Mitteleuropäische Sommerzeit),1596033614828,12.74275,35,main
1984,compatible,564,66,,correct,Graduated College,1596034379393,small,163,small,female,right,large,f,j,f,German,images/small_stimulus.jpg,Wed Jul 29 2020 16:40:14 GMT+0200 (Mitteleuropäische Sommerzeit),1596033614828,12.74275,36,main
1984,compatible,509,66,,correct,Graduated College,1596034379393,small,163,small,female,right,large,f,j,f,German,images/small_stimulus.jpg,Wed Jul 29 2020 16:40:14 GMT+0200 (Mitteleuropäische Sommerzeit),1596033614828,12.74275,37,main
1984,compatible,381,66,,correct,Graduated College,1596034379393,small,163,small,female,right,large,f,j,f,German,images/small_stimulus.jpg,Wed Jul 29 2020 16:40:14 GMT+0200 (Mitteleuropäische Sommerzeit),1596033614828,12.74275,38,main
1984,compatible,648,66,,correct,Graduated College,1596034379393,large,163,small,female,right,large,f,j,j,German,images/large_stimulus.jpg,Wed Jul 29 2020 16:40:14 GMT+0200 (Mitteleuropäische Sommerzeit),1596033614828,12.74275,39,main
1984,compatible,454,66,,correct,Graduated College,1596034379393,large,163,small,female,right,large,f,j,j,German,images/large_stimulus.jpg,Wed Jul 29 2020 16:40:14 GMT+0200 (Mitteleuropäische Sommerzeit),1596033614828,12.74275,40,main
1984,compatible,428,66,,correct,Graduated College,1596034379393,large,163,small,female,right,large,f,j,j,German,images/large_stimulus.jpg,Wed Jul 29 2020 16:40:14 GMT+0200 (Mitteleuropäische Sommerzeit),1596033614828,12.74275,41,main
1984,compatible,436,66,,correct,Graduated College,1596034379393,small,163,small,female,right,large,f,j,f,German,images/small_stimulus.jpg,Wed Jul 29 2020 16:40:14 GMT+0200 (Mitteleuropäische Sommerzeit),1596033614828,12.74275,42,main
1984,compatible,474,66,,correct,Graduated College,1596034379393,large,163,small,female,right,large,f,j,j,German,images/large_stimulus.jpg,Wed Jul 29 2020 16:40:14 GMT+0200 (Mitteleuropäische Sommerzeit),1596033614828,12.74275,43,main
1984,compatible,456,66,,correct,Graduated College,1596034379393,small,163,small,female,right,large,f,j,f,German,images/small_stimulus.jpg,Wed Jul 29 2020 16:40:14 GMT+0200 (Mitteleuropäische Sommerzeit),1596033614828,12.74275,44,main
1984,compatible,505,66,,correct,Graduated College,1596034379393,small,163,small,female,right,large,f,j,f,German,images/small_stimulus.jpg,Wed Jul 29 2020 16:40:14 GMT+0200 (Mitteleuropäische Sommerzeit),1596033614828,12.74275,45,main
1984,compatible,464,66,,correct,Graduated College,1596034379393,large,163,small,female,right,large,f,j,j,German,images/large_stimulus.jpg,Wed Jul 29 2020 16:40:14 GMT+0200 (Mitteleuropäische Sommerzeit),1596033614828,12.74275,46,main
1984,compatible,683,66,,correct,Graduated College,1596034379393,small,163,small,female,right,large,f,j,f,German,images/small_stimulus.jpg,Wed Jul 29 2020 16:40:14 GMT+0200 (Mitteleuropäische Sommerzeit),1596033614828,12.74275,47,main
1984,compatible,444,66,,correct,Graduated College,1596034379393,large,163,small,female,right,large,f,j,j,German,images/large_stimulus.jpg,Wed Jul 29 2020 16:40:14 GMT+0200 (Mitteleuropäische Sommerzeit),1596033614828,12.74275,48,main
1984,compatible,574,66,,correct,Graduated College,1596034379393,large,163,small,female,right,large,f,j,j,German,images/large_stimulus.jpg,Wed Jul 29 2020 16:40:14 GMT+0200 (Mitteleuropäische Sommerzeit),1596033614828,12.74275,49,main
1984,compatible,601,66,,correct,Graduated College,1596034379393,large,163,small,female,right,large,f,j,j,German,images/large_stimulus.jpg,Wed Jul 29 2020 16:40:14 GMT+0200 (Mitteleuropäische Sommerzeit),1596033614828,12.74275,50,main
1984,compatible,395,66,,correct,Graduated College,1596034379393,small,163,small,female,right,large,f,j,f,German,images/small_stimulus.jpg,Wed Jul 29 2020 16:40:14 GMT+0200 (Mitteleuropäische Sommerzeit),1596033614828,12.74275,51,main
1984,compatible,557,66,,correct,Graduated College,1596034379393,large,163,small,female,right,large,f,j,j,German,images/large_stimulus.jpg,Wed Jul 29 2020 16:40:14 GMT+0200 (Mitteleuropäische Sommerzeit),1596033614828,12.74275,52,main
1984,compatible,410,66,,correct,Graduated College,1596034379393,small,163,small,female,right,large,f,j,f,German,images/small_stimulus.jpg,Wed Jul 29 2020 16:40:14 GMT+0200 (Mitteleuropäische Sommerzeit),1596033614828,12.74275,53,main
1984,compatible,508,66,,correct,Graduated College,1596034379393,small,163,small,female,right,large,f,j,f,German,images/small_stimulus.jpg,Wed Jul 29 2020 16:40:14 GMT+0200 (Mitteleuropäische Sommerzeit),1596033614828,12.74275,54,main
1984,compatible,429,66,,correct,Graduated College,1596034379393,large,163,small,female,right,large,f,j,j,German,images/large_stimulus.jpg,Wed Jul 29 2020 16:40:14 GMT+0200 (Mitteleuropäische Sommerzeit),1596033614828,12.74275,55,main
1984,compatible,440,66,,correct,Graduated College,1596034379393,small,163,small,female,right,large,f,j,f,German,images/small_stimulus.jpg,Wed Jul 29 2020 16:40:14 GMT+0200 (Mitteleuropäische Sommerzeit),1596033614828,12.74275,56,main
1984,compatible,501,66,,correct,Graduated College,1596034379393,large,163,small,female,right,large,f,j,j,German,images/large_stimulus.jpg,Wed Jul 29 2020 16:40:14 GMT+0200 (Mitteleuropäische Sommerzeit),1596033614828,12.74275,57,main
1984,compatible,732,66,,correct,Graduated College,1596034379393,small,163,small,female,right,large,f,j,f,German,images/small_stimulus.jpg,Wed Jul 29 2020 16:40:14 GMT+0200 (Mitteleuropäische Sommerzeit),1596033614828,12.74275,58,main
1984,compatible,509,66,,correct,Graduated College,1596034379393,large,163,small,female,right,large,f,j,j,German,images/large_stimulus.jpg,Wed Jul 29 2020 16:40:14 GMT+0200 (Mitteleuropäische Sommerzeit),1596033614828,12.74275,59,main
1984,compatible,397,66,,correct,Graduated College,1596034379393,small,163,small,female,right,large,f,j,f,German,images/small_stimulus.jpg,Wed Jul 29 2020 16:40:14 GMT+0200 (Mitteleuropäische Sommerzeit),1596033614828,12.74275,60,main
1983,incompatible,1477,31,,incorrect,Graduated College,1596033775680,small,163,large,male,right,small,f,j,f,russian,images/small_stimulus.jpg,Wed Jul 29 2020 16:27:35 GMT+0200 (Mitteleuropäische Sommerzeit),1596032855956,15.328733333333334,1,practice
1983,incompatible,3150,31,,correct,Graduated College,1596033775680,small,163,large,male,right,small,f,j,j,russian,images/small_stimulus.jpg,Wed Jul 29 2020 16:27:35 GMT+0200 (Mitteleuropäische Sommerzeit),1596032855956,15.328733333333334,2,practice
1983,incompatible,917,31,,correct,Graduated College,1596033775680,small,163,large,male,right,small,f,j,j,russian,images/small_stimulus.jpg,Wed Jul 29 2020 16:27:35 GMT+0200 (Mitteleuropäische Sommerzeit),1596032855956,15.328733333333334,3,practice
1983,incompatible,621,31,,correct,Graduated College,1596033775680,large,163,large,male,right,small,f,j,f,russian,images/large_stimulus.jpg,Wed Jul 29 2020 16:27:35 GMT+0200 (Mitteleuropäische Sommerzeit),1596032855956,15.328733333333334,4,practice
1983,incompatible,563,31,,correct,Graduated College,1596033775680,large,163,large,male,right,small,f,j,f,russian,images/large_stimulus.jpg,Wed Jul 29 2020 16:27:35 GMT+0200 (Mitteleuropäische Sommerzeit),1596032855956,15.328733333333334,5,practice
1983,incompatible,418,31,,correct,Graduated College,1596033775680,small,163,large,male,right,small,f,j,j,russian,images/small_stimulus.jpg,Wed Jul 29 2020 16:27:35 GMT+0200 (Mitteleuropäische Sommerzeit),1596032855956,15.328733333333334,6,practice
1983,incompatible,428,31,,correct,Graduated College,1596033775680,large,163,large,male,right,small,f,j,f,russian,images/large_stimulus.jpg,Wed Jul 29 2020 16:27:35 GMT+0200 (Mitteleuropäische Sommerzeit),1596032855956,15.328733333333334,7,practice
1983,incompatible,405,31,,correct,Graduated College,1596033775680,small,163,large,male,right,small,f,j,j,russian,images/small_stimulus.jpg,Wed Jul 29 2020 16:27:35 GMT+0200 (Mitteleuropäische Sommerzeit),1596032855956,15.328733333333334,8,practice
1983,incompatible,530,31,,correct,Graduated College,1596033775680,small,163,large,male,right,small,f,j,j,russian,images/small_stimulus.jpg,Wed Jul 29 2020 16:27:35 GMT+0200 (Mitteleuropäische Sommerzeit),1596032855956,15.328733333333334,9,practice
1983,incompatible,546,31,,correct,Graduated College,1596033775680,small,163,large,male,right,small,f,j,j,russian,images/small_stimulus.jpg,Wed Jul 29 2020 16:27:35 GMT+0200 (Mitteleuropäische Sommerzeit),1596032855956,15.328733333333334,10,practice
1983,incompatible,815,31,,correct,Graduated College,1596033775680,large,163,large,male,right,small,f,j,f,russian,images/large_stimulus.jpg,Wed Jul 29 2020 16:27:35 GMT+0200 (Mitteleuropäische Sommerzeit),1596032855956,15.328733333333334,1,main
1983,incompatible,413,31,,correct,Graduated College,1596033775680,small,163,large,male,right,small,f,j,j,russian,images/small_stimulus.jpg,Wed Jul 29 2020 16:27:35 GMT+0200 (Mitteleuropäische Sommerzeit),1596032855956,15.328733333333334,2,main
1983,incompatible,425,31,,correct,Graduated College,1596033775680,large,163,large,male,right,small,f,j,f,russian,images/large_stimulus.jpg,Wed Jul 29 2020 16:27:35 GMT+0200 (Mitteleuropäische Sommerzeit),1596032855956,15.328733333333334,3,main
1983,incompatible,387,31,,correct,Graduated College,1596033775680,small,163,large,male,right,small,f,j,j,russian,images/small_stimulus.jpg,Wed Jul 29 2020 16:27:35 GMT+0200 (Mitteleuropäische Sommerzeit),1596032855956,15.328733333333334,4,main
1983,incompatible,378,31,,correct,Graduated College,1596033775680,large,163,large,male,right,small,f,j,f,russian,images/large_stimulus.jpg,Wed Jul 29 2020 16:27:35 GMT+0200 (Mitteleuropäische Sommerzeit),1596032855956,15.328733333333334,5,main
1983,incompatible,524,31,,correct,Graduated College,1596033775680,large,163,large,male,right,small,f,j,f,russian,images/large_stimulus.jpg,Wed Jul 29 2020 16:27:35 GMT+0200 (Mitteleuropäische Sommerzeit),1596032855956,15.328733333333334,6,main
1983,incompatible,400,31,,correct,Graduated College,1596033775680,small,163,large,male,right,small,f,j,j,russian,images/small_stimulus.jpg,Wed Jul 29 2020 16:27:35 GMT+0200 (Mitteleuropäische Sommerzeit),1596032855956,15.328733333333334,7,main
1983,incompatible,559,31,,correct,Graduated College,1596033775680,small,163,large,male,right,small,f,j,j,russian,images/small_stimulus.jpg,Wed Jul 29 2020 16:27:35 GMT+0200 (Mitteleuropäische Sommerzeit),1596032855956,15.328733333333334,8,main
1983,incompatible,578,31,,correct,Graduated College,1596033775680,small,163,large,male,right,small,f,j,j,russian,images/small_stimulus.jpg,Wed Jul 29 2020 16:27:35 GMT+0200 (Mitteleuropäische Sommerzeit),1596032855956,15.328733333333334,9,main
1983,incompatible,422,31,,correct,Graduated College,1596033775680,large,163,large,male,right,small,f,j,f,russian,images/large_stimulus.jpg,Wed Jul 29 2020 16:27:35 GMT+0200 (Mitteleuropäische Sommerzeit),1596032855956,15.328733333333334,10,main
1983,incompatible,677,31,,correct,Graduated College,1596033775680,large,163,large,male,right,small,f,j,f,russian,images/large_stimulus.jpg,Wed Jul 29 2020 16:27:35 GMT+0200 (Mitteleuropäische Sommerzeit),1596032855956,15.328733333333334,11,main
1983,incompatible,533,31,,correct,Graduated College,1596033775680,small,163,large,male,right,small,f,j,j,russian,images/small_stimulus.jpg,Wed Jul 29 2020 16:27:35 GMT+0200 (Mitteleuropäische Sommerzeit),1596032855956,15.328733333333334,12,main
1983,incompatible,535,31,,correct,Graduated College,1596033775680,small,163,large,male,right,small,f,j,j,russian,images/small_stimulus.jpg,Wed Jul 29 2020 16:27:35 GMT+0200 (Mitteleuropäische Sommerzeit),1596032855956,15.328733333333334,13,main
1983,incompatible,423,31,,correct,Graduated College,1596033775680,large,163,large,male,right,small,f,j,f,russian,images/large_stimulus.jpg,Wed Jul 29 2020 16:27:35 GMT+0200 (Mitteleuropäische Sommerzeit),1596032855956,15.328733333333334,14,main
1983,incompatible,419,31,,correct,Graduated College,1596033775680,small,163,large,male,right,small,f,j,j,russian,images/small_stimulus.jpg,Wed Jul 29 2020 16:27:35 GMT+0200 (Mitteleuropäische Sommerzeit),1596032855956,15.328733333333334,15,main
1983,incompatible,424,31,,correct,Graduated College,1596033775680,large,163,large,male,right,small,f,j,f,russian,images/large_stimulus.jpg,Wed Jul 29 2020 16:27:35 GMT+0200 (Mitteleuropäische Sommerzeit),1596032855956,15.328733333333334,16,main
1983,incompatible,490,31,,correct,Graduated College,1596033775680,large,163,large,male,right,small,f,j,f,russian,images/large_stimulus.jpg,Wed Jul 29 2020 16:27:35 GMT+0200 (Mitteleuropäische Sommerzeit),1596032855956,15.328733333333334,17,main
1983,incompatible,585,31,,correct,Graduated College,1596033775680,large,163,large,male,right,small,f,j,f,russian,images/large_stimulus.jpg,Wed Jul 29 2020 16:27:35 GMT+0200 (Mitteleuropäische Sommerzeit),1596032855956,15.328733333333334,18,main
1983,incompatible,496,31,,correct,Graduated College,1596033775680,large,163,large,male,right,small,f,j,f,russian,images/large_stimulus.jpg,Wed Jul 29 2020 16:27:35 GMT+0200 (Mitteleuropäische Sommerzeit),1596032855956,15.328733333333334,19,main
1983,incompatible,488,31,,correct,Graduated College,1596033775680,large,163,large,male,right,small,f,j,f,russian,images/large_stimulus.jpg,Wed Jul 29 2020 16:27:35 GMT+0200 (Mitteleuropäische Sommerzeit),1596032855956,15.328733333333334,20,main
1983,incompatible,488,31,,correct,Graduated College,1596033775680,large,163,large,male,right,small,f,j,f,russian,images/large_stimulus.jpg,Wed Jul 29 2020 16:27:35 GMT+0200 (Mitteleuropäische Sommerzeit),1596032855956,15.328733333333334,21,main
1983,incompatible,558,31,,correct,Graduated College,1596033775680,small,163,large,male,right,small,f,j,j,russian,images/small_stimulus.jpg,Wed Jul 29 2020 16:27:35 GMT+0200 (Mitteleuropäische Sommerzeit),1596032855956,15.328733333333334,22,main
1983,incompatible,679,31,,correct,Graduated College,1596033775680,small,163,large,male,right,small,f,j,j,russian,images/small_stimulus.jpg,Wed Jul 29 2020 16:27:35 GMT+0200 (Mitteleuropäische Sommerzeit),1596032855956,15.328733333333334,23,main
1983,incompatible,448,31,,correct,Graduated College,1596033775680,large,163,large,male,right,small,f,j,f,russian,images/large_stimulus.jpg,Wed Jul 29 2020 16:27:35 GMT+0200 (Mitteleuropäische Sommerzeit),1596032855956,15.328733333333334,24,main
1983,incompatible,543,31,,incorrect,Graduated College,1596033775680,small,163,large,male,right,small,f,j,f,russian,images/small_stimulus.jpg,Wed Jul 29 2020 16:27:35 GMT+0200 (Mitteleuropäische Sommerzeit),1596032855956,15.328733333333334,25,main
1983,incompatible,679,31,,correct,Graduated College,1596033775680,small,163,large,male,right,small,f,j,j,russian,images/small_stimulus.jpg,Wed Jul 29 2020 16:27:35 GMT+0200 (Mitteleuropäische Sommerzeit),1596032855956,15.328733333333334,26,main
1983,incompatible,615,31,,correct,Graduated College,1596033775680,small,163,large,male,right,small,f,j,j,russian,images/small_stimulus.jpg,Wed Jul 29 2020 16:27:35 GMT+0200 (Mitteleuropäische Sommerzeit),1596032855956,15.328733333333334,27,main
1983,incompatible,460,31,,correct,Graduated College,1596033775680,large,163,large,male,right,small,f,j,f,russian,images/large_stimulus.jpg,Wed Jul 29 2020 16:27:35 GMT+0200 (Mitteleuropäische Sommerzeit),1596032855956,15.328733333333334,28,main
1983,incompatible,590,31,,correct,Graduated College,1596033775680,large,163,large,male,right,small,f,j,f,russian,images/large_stimulus.jpg,Wed Jul 29 2020 16:27:35 GMT+0200 (Mitteleuropäische Sommerzeit),1596032855956,15.328733333333334,29,main
1983,incompatible,495,31,,correct,Graduated College,1596033775680,large,163,large,male,right,small,f,j,f,russian,images/large_stimulus.jpg,Wed Jul 29 2020 16:27:35 GMT+0200 (Mitteleuropäische Sommerzeit),1596032855956,15.328733333333334,30,main
1983,incompatible,749,31,,correct,Graduated College,1596033775680,small,163,large,male,right,small,f,j,j,russian,images/small_stimulus.jpg,Wed Jul 29 2020 16:27:35 GMT+0200 (Mitteleuropäische Sommerzeit),1596032855956,15.328733333333334,31,main
1983,incompatible,503,31,,correct,Graduated College,1596033775680,large,163,large,male,right,small,f,j,f,russian,images/large_stimulus.jpg,Wed Jul 29 2020 16:27:35 GMT+0200 (Mitteleuropäische Sommerzeit),1596032855956,15.328733333333334,32,main
1983,incompatible,569,31,,correct,Graduated College,1596033775680,large,163,large,male,right,small,f,j,f,russian,images/large_stimulus.jpg,Wed Jul 29 2020 16:27:35 GMT+0200 (Mitteleuropäische Sommerzeit),1596032855956,15.328733333333334,33,main
1983,incompatible,510,31,,correct,Graduated College,1596033775680,large,163,large,male,right,small,f,j,f,russian,images/large_stimulus.jpg,Wed Jul 29 2020 16:27:35 GMT+0200 (Mitteleuropäische Sommerzeit),1596032855956,15.328733333333334,34,main
1983,incompatible,492,31,,correct,Graduated College,1596033775680,small,163,large,male,right,small,f,j,j,russian,images/small_stimulus.jpg,Wed Jul 29 2020 16:27:35 GMT+0200 (Mitteleuropäische Sommerzeit),1596032855956,15.328733333333334,35,main
1983,incompatible,633,31,,correct,Graduated College,1596033775680,small,163,large,male,right,small,f,j,j,russian,images/small_stimulus.jpg,Wed Jul 29 2020 16:27:35 GMT+0200 (Mitteleuropäische Sommerzeit),1596032855956,15.328733333333334,36,main
1983,incompatible,533,31,,correct,Graduated College,1596033775680,large,163,large,male,right,small,f,j,f,russian,images/large_stimulus.jpg,Wed Jul 29 2020 16:27:35 GMT+0200 (Mitteleuropäische Sommerzeit),1596032855956,15.328733333333334,37,main
1983,incompatible,662,31,,correct,Graduated College,1596033775680,large,163,large,male,right,small,f,j,f,russian,images/large_stimulus.jpg,Wed Jul 29 2020 16:27:35 GMT+0200 (Mitteleuropäische Sommerzeit),1596032855956,15.328733333333334,38,main
1983,incompatible,512,31,,correct,Graduated College,1596033775680,small,163,large,male,right,small,f,j,j,russian,images/small_stimulus.jpg,Wed Jul 29 2020 16:27:35 GMT+0200 (Mitteleuropäische Sommerzeit),1596032855956,15.328733333333334,39,main
1983,incompatible,649,31,,correct,Graduated College,1596033775680,small,163,large,male,right,small,f,j,j,russian,images/small_stimulus.jpg,Wed Jul 29 2020 16:27:35 GMT+0200 (Mitteleuropäische Sommerzeit),1596032855956,15.328733333333334,40,main
1983,incompatible,435,31,,correct,Graduated College,1596033775680,large,163,large,male,right,small,f,j,f,russian,images/large_stimulus.jpg,Wed Jul 29 2020 16:27:35 GMT+0200 (Mitteleuropäische Sommerzeit),1596032855956,15.328733333333334,41,main
1983,incompatible,437,31,,correct,Graduated College,1596033775680,small,163,large,male,right,small,f,j,j,russian,images/small_stimulus.jpg,Wed Jul 29 2020 16:27:35 GMT+0200 (Mitteleuropäische Sommerzeit),1596032855956,15.328733333333334,42,main
1983,incompatible,585,31,,correct,Graduated College,1596033775680,small,163,large,male,right,small,f,j,j,russian,images/small_stimulus.jpg,Wed Jul 29 2020 16:27:35 GMT+0200 (Mitteleuropäische Sommerzeit),1596032855956,15.328733333333334,43,main
1983,incompatible,524,31,,correct,Graduated College,1596033775680,small,163,large,male,right,small,f,j,j,russian,images/small_stimulus.jpg,Wed Jul 29 2020 16:27:35 GMT+0200 (Mitteleuropäische Sommerzeit),1596032855956,15.328733333333334,44,main
1983,incompatible,557,31,,correct,Graduated College,1596033775680,small,163,large,male,right,small,f,j,j,russian,images/small_stimulus.jpg,Wed Jul 29 2020 16:27:35 GMT+0200 (Mitteleuropäische Sommerzeit),1596032855956,15.328733333333334,45,main
1983,incompatible,513,31,,correct,Graduated College,1596033775680,large,163,large,male,right,small,f,j,f,russian,images/large_stimulus.jpg,Wed Jul 29 2020 16:27:35 GMT+0200 (Mitteleuropäische Sommerzeit),1596032855956,15.328733333333334,46,main
1983,incompatible,580,31,,correct,Graduated College,1596033775680,large,163,large,male,right,small,f,j,f,russian,images/large_stimulus.jpg,Wed Jul 29 2020 16:27:35 GMT+0200 (Mitteleuropäische Sommerzeit),1596032855956,15.328733333333334,47,main
1983,incompatible,538,31,,correct,Graduated College,1596033775680,large,163,large,male,right,small,f,j,f,russian,images/large_stimulus.jpg,Wed Jul 29 2020 16:27:35 GMT+0200 (Mitteleuropäische Sommerzeit),1596032855956,15.328733333333334,48,main
1983,incompatible,678,31,,correct,Graduated College,1596033775680,small,163,large,male,right,small,f,j,j,russian,images/small_stimulus.jpg,Wed Jul 29 2020 16:27:35 GMT+0200 (Mitteleuropäische Sommerzeit),1596032855956,15.328733333333334,49,main
1983,incompatible,705,31,,correct,Graduated College,1596033775680,large,163,large,male,right,small,f,j,f,russian,images/large_stimulus.jpg,Wed Jul 29 2020 16:27:35 GMT+0200 (Mitteleuropäische Sommerzeit),1596032855956,15.328733333333334,50,main
1983,incompatible,780,31,,correct,Graduated College,1596033775680,small,163,large,male,right,small,f,j,j,russian,images/small_stimulus.jpg,Wed Jul 29 2020 16:27:35 GMT+0200 (Mitteleuropäische Sommerzeit),1596032855956,15.328733333333334,51,main
1983,incompatible,451,31,,correct,Graduated College,1596033775680,small,163,large,male,right,small,f,j,j,russian,images/small_stimulus.jpg,Wed Jul 29 2020 16:27:35 GMT+0200 (Mitteleuropäische Sommerzeit),1596032855956,15.328733333333334,52,main
1983,incompatible,534,31,,correct,Graduated College,1596033775680,small,163,large,male,right,small,f,j,j,russian,images/small_stimulus.jpg,Wed Jul 29 2020 16:27:35 GMT+0200 (Mitteleuropäische Sommerzeit),1596032855956,15.328733333333334,53,main
1983,incompatible,528,31,,correct,Graduated College,1596033775680,small,163,large,male,right,small,f,j,j,russian,images/small_stimulus.jpg,Wed Jul 29 2020 16:27:35 GMT+0200 (Mitteleuropäische Sommerzeit),1596032855956,15.328733333333334,54,main
1983,incompatible,526,31,,correct,Graduated College,1596033775680,large,163,large,male,right,small,f,j,f,russian,images/large_stimulus.jpg,Wed Jul 29 2020 16:27:35 GMT+0200 (Mitteleuropäische Sommerzeit),1596032855956,15.328733333333334,55,main
1983,incompatible,609,31,,correct,Graduated College,1596033775680,large,163,large,male,right,small,f,j,f,russian,images/large_stimulus.jpg,Wed Jul 29 2020 16:27:35 GMT+0200 (Mitteleuropäische Sommerzeit),1596032855956,15.328733333333334,56,main
1983,incompatible,602,31,,correct,Graduated College,1596033775680,small,163,large,male,right,small,f,j,j,russian,images/small_stimulus.jpg,Wed Jul 29 2020 16:27:35 GMT+0200 (Mitteleuropäische Sommerzeit),1596032855956,15.328733333333334,57,main
1983,incompatible,573,31,,correct,Graduated College,1596033775680,small,163,large,male,right,small,f,j,j,russian,images/small_stimulus.jpg,Wed Jul 29 2020 16:27:35 GMT+0200 (Mitteleuropäische Sommerzeit),1596032855956,15.328733333333334,58,main
1983,incompatible,469,31,,correct,Graduated College,1596033775680,small,163,large,male,right,small,f,j,j,russian,images/small_stimulus.jpg,Wed Jul 29 2020 16:27:35 GMT+0200 (Mitteleuropäische Sommerzeit),1596032855956,15.328733333333334,59,main
1983,incompatible,455,31,,correct,Graduated College,1596033775680,large,163,large,male,right,small,f,j,f,russian,images/large_stimulus.jpg,Wed Jul 29 2020 16:27:35 GMT+0200 (Mitteleuropäische Sommerzeit),1596032855956,15.328733333333334,60,main
1983,compatible,677,31,,correct,Graduated College,1596033775680,small,163,small,male,right,large,f,j,f,russian,images/small_stimulus.jpg,Wed Jul 29 2020 16:27:35 GMT+0200 (Mitteleuropäische Sommerzeit),1596032855956,15.328733333333334,1,practice
1983,compatible,595,31,,correct,Graduated College,1596033775680,small,163,small,male,right,large,f,j,f,russian,images/small_stimulus.jpg,Wed Jul 29 2020 16:27:35 GMT+0200 (Mitteleuropäische Sommerzeit),1596032855956,15.328733333333334,2,practice
1983,compatible,598,31,,correct,Graduated College,1596033775680,large,163,small,male,right,large,f,j,j,russian,images/large_stimulus.jpg,Wed Jul 29 2020 16:27:35 GMT+0200 (Mitteleuropäische Sommerzeit),1596032855956,15.328733333333334,3,practice
1983,compatible,40779,31,,correct,Graduated College,1596033775680,large,163,small,male,right,large,f,j,j,russian,images/large_stimulus.jpg,Wed Jul 29 2020 16:27:35 GMT+0200 (Mitteleuropäische Sommerzeit),1596032855956,15.328733333333334,4,practice
1983,compatible,895,31,,correct,Graduated College,1596033775680,small,163,small,male,right,large,f,j,f,russian,images/small_stimulus.jpg,Wed Jul 29 2020 16:27:35 GMT+0200 (Mitteleuropäische Sommerzeit),1596032855956,15.328733333333334,5,practice
1983,compatible,21373,31,,correct,Graduated College,1596033775680,large,163,small,male,right,large,f,j,j,russian,images/large_stimulus.jpg,Wed Jul 29 2020 16:27:35 GMT+0200 (Mitteleuropäische Sommerzeit),1596032855956,15.328733333333334,6,practice
1983,compatible,1516,31,,correct,Graduated College,1596033775680,large,163,small,male,right,large,f,j,j,russian,images/large_stimulus.jpg,Wed Jul 29 2020 16:27:35 GMT+0200 (Mitteleuropäische Sommerzeit),1596032855956,15.328733333333334,7,practice
1983,compatible,1059,31,,correct,Graduated College,1596033775680,large,163,small,male,right,large,f,j,j,russian,images/large_stimulus.jpg,Wed Jul 29 2020 16:27:35 GMT+0200 (Mitteleuropäische Sommerzeit),1596032855956,15.328733333333334,8,practice
1983,compatible,599,31,,correct,Graduated College,1596033775680,small,163,small,male,right,large,f,j,f,russian,images/small_stimulus.jpg,Wed Jul 29 2020 16:27:35 GMT+0200 (Mitteleuropäische Sommerzeit),1596032855956,15.328733333333334,9,practice
1983,compatible,888,31,,incorrect,Graduated College,1596033775680,small,163,small,male,right,large,f,j,j,russian,images/small_stimulus.jpg,Wed Jul 29 2020 16:27:35 GMT+0200 (Mitteleuropäische Sommerzeit),1596032855956,15.328733333333334,10,practice
1983,compatible,182,31,,incorrect,Graduated College,1596033775680,small,163,small,male,right,large,f,j,j,russian,images/small_stimulus.jpg,Wed Jul 29 2020 16:27:35 GMT+0200 (Mitteleuropäische Sommerzeit),1596032855956,15.328733333333334,11,practice
1983,compatible,3922,31,,correct,Graduated College,1596033775680,small,163,small,male,right,large,f,j,f,russian,images/small_stimulus.jpg,Wed Jul 29 2020 16:27:35 GMT+0200 (Mitteleuropäische Sommerzeit),1596032855956,15.328733333333334,12,practice
1983,compatible,951,31,,correct,Graduated College,1596033775680,small,163,small,male,right,large,f,j,f,russian,images/small_stimulus.jpg,Wed Jul 29 2020 16:27:35 GMT+0200 (Mitteleuropäische Sommerzeit),1596032855956,15.328733333333334,13,practice
1983,compatible,447,31,,correct,Graduated College,1596033775680,large,163,small,male,right,large,f,j,j,russian,images/large_stimulus.jpg,Wed Jul 29 2020 16:27:35 GMT+0200 (Mitteleuropäische Sommerzeit),1596032855956,15.328733333333334,14,practice
1983,compatible,438,31,,correct,Graduated College,1596033775680,small,163,small,male,right,large,f,j,f,russian,images/small_stimulus.jpg,Wed Jul 29 2020 16:27:35 GMT+0200 (Mitteleuropäische Sommerzeit),1596032855956,15.328733333333334,15,practice
1983,compatible,370,31,,correct,Graduated College,1596033775680,large,163,small,male,right,large,f,j,j,russian,images/large_stimulus.jpg,Wed Jul 29 2020 16:27:35 GMT+0200 (Mitteleuropäische Sommerzeit),1596032855956,15.328733333333334,16,practice
1983,compatible,496,31,,correct,Graduated College,1596033775680,small,163,small,male,right,large,f,j,f,russian,images/small_stimulus.jpg,Wed Jul 29 2020 16:27:35 GMT+0200 (Mitteleuropäische Sommerzeit),1596032855956,15.328733333333334,17,practice
1983,compatible,524,31,,correct,Graduated College,1596033775680,small,163,small,male,right,large,f,j,f,russian,images/small_stimulus.jpg,Wed Jul 29 2020 16:27:35 GMT+0200 (Mitteleuropäische Sommerzeit),1596032855956,15.328733333333334,18,practice
1983,compatible,682,31,,correct,Graduated College,1596033775680,large,163,small,male,right,large,f,j,j,russian,images/large_stimulus.jpg,Wed Jul 29 2020 16:27:35 GMT+0200 (Mitteleuropäische Sommerzeit),1596032855956,15.328733333333334,19,practice
1983,compatible,558,31,,correct,Graduated College,1596033775680,small,163,small,male,right,large,f,j,f,russian,images/small_stimulus.jpg,Wed Jul 29 2020 16:27:35 GMT+0200 (Mitteleuropäische Sommerzeit),1596032855956,15.328733333333334,20,practice
1983,compatible,1245,31,,correct,Graduated College,1596033775680,large,163,small,male,right,large,f,j,j,russian,images/large_stimulus.jpg,Wed Jul 29 2020 16:27:35 GMT+0200 (Mitteleuropäische Sommerzeit),1596032855956,15.328733333333334,1,main
1983,compatible,444,31,,correct,Graduated College,1596033775680,small,163,small,male,right,large,f,j,f,russian,images/small_stimulus.jpg,Wed Jul 29 2020 16:27:35 GMT+0200 (Mitteleuropäische Sommerzeit),1596032855956,15.328733333333334,2,main
1983,compatible,580,31,,correct,Graduated College,1596033775680,large,163,small,male,right,large,f,j,j,russian,images/large_stimulus.jpg,Wed Jul 29 2020 16:27:35 GMT+0200 (Mitteleuropäische Sommerzeit),1596032855956,15.328733333333334,3,main
1983,compatible,534,31,,correct,Graduated College,1596033775680,large,163,small,male,right,large,f,j,j,russian,images/large_stimulus.jpg,Wed Jul 29 2020 16:27:35 GMT+0200 (Mitteleuropäische Sommerzeit),1596032855956,15.328733333333334,4,main
1983,compatible,520,31,,correct,Graduated College,1596033775680,large,163,small,male,right,large,f,j,j,russian,images/large_stimulus.jpg,Wed Jul 29 2020 16:27:35 GMT+0200 (Mitteleuropäische Sommerzeit),1596032855956,15.328733333333334,5,main
1983,compatible,478,31,,correct,Graduated College,1596033775680,large,163,small,male,right,large,f,j,j,russian,images/large_stimulus.jpg,Wed Jul 29 2020 16:27:35 GMT+0200 (Mitteleuropäische Sommerzeit),1596032855956,15.328733333333334,6,main
1983,compatible,483,31,,correct,Graduated College,1596033775680,large,163,small,male,right,large,f,j,j,russian,images/large_stimulus.jpg,Wed Jul 29 2020 16:27:35 GMT+0200 (Mitteleuropäische Sommerzeit),1596032855956,15.328733333333334,7,main
1983,compatible,430,31,,correct,Graduated College,1596033775680,small,163,small,male,right,large,f,j,f,russian,images/small_stimulus.jpg,Wed Jul 29 2020 16:27:35 GMT+0200 (Mitteleuropäische Sommerzeit),1596032855956,15.328733333333334,8,main
1983,compatible,396,31,,correct,Graduated College,1596033775680,large,163,small,male,right,large,f,j,j,russian,images/large_stimulus.jpg,Wed Jul 29 2020 16:27:35 GMT+0200 (Mitteleuropäische Sommerzeit),1596032855956,15.328733333333334,9,main
1983,compatible,403,31,,correct,Graduated College,1596033775680,small,163,small,male,right,large,f,j,f,russian,images/small_stimulus.jpg,Wed Jul 29 2020 16:27:35 GMT+0200 (Mitteleuropäische Sommerzeit),1596032855956,15.328733333333334,10,main
1983,compatible,330,31,,correct,Graduated College,1596033775680,large,163,small,male,right,large,f,j,j,russian,images/large_stimulus.jpg,Wed Jul 29 2020 16:27:35 GMT+0200 (Mitteleuropäische Sommerzeit),1596032855956,15.328733333333334,11,main
1983,compatible,498,31,,correct,Graduated College,1596033775680,large,163,small,male,right,large,f,j,j,russian,images/large_stimulus.jpg,Wed Jul 29 2020 16:27:35 GMT+0200 (Mitteleuropäische Sommerzeit),1596032855956,15.328733333333334,12,main
1983,compatible,432,31,,correct,Graduated College,1596033775680,small,163,small,male,right,large,f,j,f,russian,images/small_stimulus.jpg,Wed Jul 29 2020 16:27:35 GMT+0200 (Mitteleuropäische Sommerzeit),1596032855956,15.328733333333334,13,main
1983,compatible,350,31,,correct,Graduated College,1596033775680,large,163,small,male,right,large,f,j,j,russian,images/large_stimulus.jpg,Wed Jul 29 2020 16:27:35 GMT+0200 (Mitteleuropäische Sommerzeit),1596032855956,15.328733333333334,14,main
1983,compatible,293,31,,incorrect,Graduated College,1596033775680,large,163,small,male,right,large,f,j,f,russian,images/large_stimulus.jpg,Wed Jul 29 2020 16:27:35 GMT+0200 (Mitteleuropäische Sommerzeit),1596032855956,15.328733333333334,15,main
1983,compatible,433,31,,correct,Graduated College,1596033775680,large,163,small,male,right,large,f,j,j,russian,images/large_stimulus.jpg,Wed Jul 29 2020 16:27:35 GMT+0200 (Mitteleuropäische Sommerzeit),1596032855956,15.328733333333334,16,main
1983,compatible,449,31,,correct,Graduated College,1596033775680,large,163,small,male,right,large,f,j,j,russian,images/large_stimulus.jpg,Wed Jul 29 2020 16:27:35 GMT+0200 (Mitteleuropäische Sommerzeit),1596032855956,15.328733333333334,17,main
1983,compatible,452,31,,correct,Graduated College,1596033775680,small,163,small,male,right,large,f,j,f,russian,images/small_stimulus.jpg,Wed Jul 29 2020 16:27:35 GMT+0200 (Mitteleuropäische Sommerzeit),1596032855956,15.328733333333334,18,main
1983,compatible,511,31,,correct,Graduated College,1596033775680,large,163,small,male,right,large,f,j,j,russian,images/large_stimulus.jpg,Wed Jul 29 2020 16:27:35 GMT+0200 (Mitteleuropäische Sommerzeit),1596032855956,15.328733333333334,19,main
1983,compatible,479,31,,correct,Graduated College,1596033775680,large,163,small,male,right,large,f,j,j,russian,images/large_stimulus.jpg,Wed Jul 29 2020 16:27:35 GMT+0200 (Mitteleuropäische Sommerzeit),1596032855956,15.328733333333334,20,main
1983,compatible,524,31,,correct,Graduated College,1596033775680,large,163,small,male,right,large,f,j,j,russian,images/large_stimulus.jpg,Wed Jul 29 2020 16:27:35 GMT+0200 (Mitteleuropäische Sommerzeit),1596032855956,15.328733333333334,21,main
1983,compatible,546,31,,correct,Graduated College,1596033775680,small,163,small,male,right,large,f,j,f,russian,images/small_stimulus.jpg,Wed Jul 29 2020 16:27:35 GMT+0200 (Mitteleuropäische Sommerzeit),1596032855956,15.328733333333334,22,main
1983,compatible,426,31,,correct,Graduated College,1596033775680,large,163,small,male,right,large,f,j,j,russian,images/large_stimulus.jpg,Wed Jul 29 2020 16:27:35 GMT+0200 (Mitteleuropäische Sommerzeit),1596032855956,15.328733333333334,23,main
1983,compatible,598,31,,correct,Graduated College,1596033775680,small,163,small,male,right,large,f,j,f,russian,images/small_stimulus.jpg,Wed Jul 29 2020 16:27:35 GMT+0200 (Mitteleuropäische Sommerzeit),1596032855956,15.328733333333334,24,main
1983,compatible,425,31,,correct,Graduated College,1596033775680,large,163,small,male,right,large,f,j,j,russian,images/large_stimulus.jpg,Wed Jul 29 2020 16:27:35 GMT+0200 (Mitteleuropäische Sommerzeit),1596032855956,15.328733333333334,25,main
1983,compatible,412,31,,correct,Graduated College,1596033775680,small,163,small,male,right,large,f,j,f,russian,images/small_stimulus.jpg,Wed Jul 29 2020 16:27:35 GMT+0200 (Mitteleuropäische Sommerzeit),1596032855956,15.328733333333334,26,main
1983,compatible,490,31,,correct,Graduated College,1596033775680,small,163,small,male,right,large,f,j,f,russian,images/small_stimulus.jpg,Wed Jul 29 2020 16:27:35 GMT+0200 (Mitteleuropäische Sommerzeit),1596032855956,15.328733333333334,27,main
1983,compatible,437,31,,correct,Graduated College,1596033775680,small,163,small,male,right,large,f,j,f,russian,images/small_stimulus.jpg,Wed Jul 29 2020 16:27:35 GMT+0200 (Mitteleuropäische Sommerzeit),1596032855956,15.328733333333334,28,main
1983,compatible,495,31,,correct,Graduated College,1596033775680,small,163,small,male,right,large,f,j,f,russian,images/small_stimulus.jpg,Wed Jul 29 2020 16:27:35 GMT+0200 (Mitteleuropäische Sommerzeit),1596032855956,15.328733333333334,29,main
1983,compatible,538,31,,correct,Graduated College,1596033775680,small,163,small,male,right,large,f,j,f,russian,images/small_stimulus.jpg,Wed Jul 29 2020 16:27:35 GMT+0200 (Mitteleuropäische Sommerzeit),1596032855956,15.328733333333334,30,main
1983,compatible,552,31,,correct,Graduated College,1596033775680,small,163,small,male,right,large,f,j,f,russian,images/small_stimulus.jpg,Wed Jul 29 2020 16:27:35 GMT+0200 (Mitteleuropäische Sommerzeit),1596032855956,15.328733333333334,31,main
1983,compatible,532,31,,correct,Graduated College,1596033775680,small,163,small,male,right,large,f,j,f,russian,images/small_stimulus.jpg,Wed Jul 29 2020 16:27:35 GMT+0200 (Mitteleuropäische Sommerzeit),1596032855956,15.328733333333334,32,main
1983,compatible,575,31,,correct,Graduated College,1596033775680,small,163,small,male,right,large,f,j,f,russian,images/small_stimulus.jpg,Wed Jul 29 2020 16:27:35 GMT+0200 (Mitteleuropäische Sommerzeit),1596032855956,15.328733333333334,33,main
1983,compatible,619,31,,correct,Graduated College,1596033775680,large,163,small,male,right,large,f,j,j,russian,images/large_stimulus.jpg,Wed Jul 29 2020 16:27:35 GMT+0200 (Mitteleuropäische Sommerzeit),1596032855956,15.328733333333334,34,main
1983,compatible,560,31,,correct,Graduated College,1596033775680,small,163,small,male,right,large,f,j,f,russian,images/small_stimulus.jpg,Wed Jul 29 2020 16:27:35 GMT+0200 (Mitteleuropäische Sommerzeit),1596032855956,15.328733333333334,35,main
1983,compatible,472,31,,correct,Graduated College,1596033775680,large,163,small,male,right,large,f,j,j,russian,images/large_stimulus.jpg,Wed Jul 29 2020 16:27:35 GMT+0200 (Mitteleuropäische Sommerzeit),1596032855956,15.328733333333334,36,main
1983,compatible,445,31,,correct,Graduated College,1596033775680,small,163,small,male,right,large,f,j,f,russian,images/small_stimulus.jpg,Wed Jul 29 2020 16:27:35 GMT+0200 (Mitteleuropäische Sommerzeit),1596032855956,15.328733333333334,37,main
1983,compatible,519,31,,correct,Graduated College,1596033775680,small,163,small,male,right,large,f,j,f,russian,images/small_stimulus.jpg,Wed Jul 29 2020 16:27:35 GMT+0200 (Mitteleuropäische Sommerzeit),1596032855956,15.328733333333334,38,main
1983,compatible,562,31,,correct,Graduated College,1596033775680,small,163,small,male,right,large,f,j,f,russian,images/small_stimulus.jpg,Wed Jul 29 2020 16:27:35 GMT+0200 (Mitteleuropäische Sommerzeit),1596032855956,15.328733333333334,39,main
1983,compatible,538,31,,correct,Graduated College,1596033775680,small,163,small,male,right,large,f,j,f,russian,images/small_stimulus.jpg,Wed Jul 29 2020 16:27:35 GMT+0200 (Mitteleuropäische Sommerzeit),1596032855956,15.328733333333334,40,main
1983,compatible,507,31,,correct,Graduated College,1596033775680,small,163,small,male,right,large,f,j,f,russian,images/small_stimulus.jpg,Wed Jul 29 2020 16:27:35 GMT+0200 (Mitteleuropäische Sommerzeit),1596032855956,15.328733333333334,41,main
1983,compatible,494,31,,correct,Graduated College,1596033775680,large,163,small,male,right,large,f,j,j,russian,images/large_stimulus.jpg,Wed Jul 29 2020 16:27:35 GMT+0200 (Mitteleuropäische Sommerzeit),1596032855956,15.328733333333334,42,main
1983,compatible,534,31,,correct,Graduated College,1596033775680,large,163,small,male,right,large,f,j,j,russian,images/large_stimulus.jpg,Wed Jul 29 2020 16:27:35 GMT+0200 (Mitteleuropäische Sommerzeit),1596032855956,15.328733333333334,43,main
1983,compatible,497,31,,correct,Graduated College,1596033775680,small,163,small,male,right,large,f,j,f,russian,images/small_stimulus.jpg,Wed Jul 29 2020 16:27:35 GMT+0200 (Mitteleuropäische Sommerzeit),1596032855956,15.328733333333334,44,main
1983,compatible,606,31,,correct,Graduated College,1596033775680,small,163,small,male,right,large,f,j,f,russian,images/small_stimulus.jpg,Wed Jul 29 2020 16:27:35 GMT+0200 (Mitteleuropäische Sommerzeit),1596032855956,15.328733333333334,45,main
1983,compatible,699,31,,correct,Graduated College,1596033775680,large,163,small,male,right,large,f,j,j,russian,images/large_stimulus.jpg,Wed Jul 29 2020 16:27:35 GMT+0200 (Mitteleuropäische Sommerzeit),1596032855956,15.328733333333334,46,main
1983,compatible,639,31,,correct,Graduated College,1596033775680,large,163,small,male,right,large,f,j,j,russian,images/large_stimulus.jpg,Wed Jul 29 2020 16:27:35 GMT+0200 (Mitteleuropäische Sommerzeit),1596032855956,15.328733333333334,47,main
1983,compatible,556,31,,correct,Graduated College,1596033775680,small,163,small,male,right,large,f,j,f,russian,images/small_stimulus.jpg,Wed Jul 29 2020 16:27:35 GMT+0200 (Mitteleuropäische Sommerzeit),1596032855956,15.328733333333334,48,main
1983,compatible,489,31,,correct,Graduated College,1596033775680,large,163,small,male,right,large,f,j,j,russian,images/large_stimulus.jpg,Wed Jul 29 2020 16:27:35 GMT+0200 (Mitteleuropäische Sommerzeit),1596032855956,15.328733333333334,49,main
1983,compatible,456,31,,correct,Graduated College,1596033775680,small,163,small,male,right,large,f,j,f,russian,images/small_stimulus.jpg,Wed Jul 29 2020 16:27:35 GMT+0200 (Mitteleuropäische Sommerzeit),1596032855956,15.328733333333334,50,main
1983,compatible,517,31,,correct,Graduated College,1596033775680,small,163,small,male,right,large,f,j,f,russian,images/small_stimulus.jpg,Wed Jul 29 2020 16:27:35 GMT+0200 (Mitteleuropäische Sommerzeit),1596032855956,15.328733333333334,51,main
1983,compatible,652,31,,correct,Graduated College,1596033775680,large,163,small,male,right,large,f,j,j,russian,images/large_stimulus.jpg,Wed Jul 29 2020 16:27:35 GMT+0200 (Mitteleuropäische Sommerzeit),1596032855956,15.328733333333334,52,main
1983,compatible,462,31,,correct,Graduated College,1596033775680,small,163,small,male,right,large,f,j,f,russian,images/small_stimulus.jpg,Wed Jul 29 2020 16:27:35 GMT+0200 (Mitteleuropäische Sommerzeit),1596032855956,15.328733333333334,53,main
1983,compatible,477,31,,correct,Graduated College,1596033775680,large,163,small,male,right,large,f,j,j,russian,images/large_stimulus.jpg,Wed Jul 29 2020 16:27:35 GMT+0200 (Mitteleuropäische Sommerzeit),1596032855956,15.328733333333334,54,main
1983,compatible,549,31,,correct,Graduated College,1596033775680,small,163,small,male,right,large,f,j,f,russian,images/small_stimulus.jpg,Wed Jul 29 2020 16:27:35 GMT+0200 (Mitteleuropäische Sommerzeit),1596032855956,15.328733333333334,55,main
1983,compatible,603,31,,correct,Graduated College,1596033775680,large,163,small,male,right,large,f,j,j,russian,images/large_stimulus.jpg,Wed Jul 29 2020 16:27:35 GMT+0200 (Mitteleuropäische Sommerzeit),1596032855956,15.328733333333334,56,main
1983,compatible,497,31,,correct,Graduated College,1596033775680,large,163,small,male,right,large,f,j,j,russian,images/large_stimulus.jpg,Wed Jul 29 2020 16:27:35 GMT+0200 (Mitteleuropäische Sommerzeit),1596032855956,15.328733333333334,57,main
1983,compatible,566,31,,correct,Graduated College,1596033775680,large,163,small,male,right,large,f,j,j,russian,images/large_stimulus.jpg,Wed Jul 29 2020 16:27:35 GMT+0200 (Mitteleuropäische Sommerzeit),1596032855956,15.328733333333334,58,main
1983,compatible,530,31,,correct,Graduated College,1596033775680,small,163,small,male,right,large,f,j,f,russian,images/small_stimulus.jpg,Wed Jul 29 2020 16:27:35 GMT+0200 (Mitteleuropäische Sommerzeit),1596032855956,15.328733333333334,59,main
1983,compatible,525,31,,correct,Graduated College,1596033775680,small,163,small,male,right,large,f,j,f,russian,images/small_stimulus.jpg,Wed Jul 29 2020 16:27:35 GMT+0200 (Mitteleuropäische Sommerzeit),1596032855956,15.328733333333334,60,main
1979,incompatible,2076,22,,correct,Graduated High School,1596023719184,large,163,large,female,right,small,f,j,f,German,images/large_stimulus.jpg,Wed Jul 29 2020 13:41:47 GMT+0200 (Mitteleuropäische Sommerzeit),1596022907850,13.522233333333334,1,practice
1979,incompatible,669,22,,correct,Graduated High School,1596023719184,large,163,large,female,right,small,f,j,f,German,images/large_stimulus.jpg,Wed Jul 29 2020 13:41:47 GMT+0200 (Mitteleuropäische Sommerzeit),1596022907850,13.522233333333334,2,practice
1979,incompatible,484,22,,correct,Graduated High School,1596023719184,large,163,large,female,right,small,f,j,f,German,images/large_stimulus.jpg,Wed Jul 29 2020 13:41:47 GMT+0200 (Mitteleuropäische Sommerzeit),1596022907850,13.522233333333334,3,practice
1979,incompatible,462,22,,correct,Graduated High School,1596023719184,large,163,large,female,right,small,f,j,f,German,images/large_stimulus.jpg,Wed Jul 29 2020 13:41:47 GMT+0200 (Mitteleuropäische Sommerzeit),1596022907850,13.522233333333334,4,practice
1979,incompatible,633,22,,correct,Graduated High School,1596023719184,small,163,large,female,right,small,f,j,j,German,images/small_stimulus.jpg,Wed Jul 29 2020 13:41:47 GMT+0200 (Mitteleuropäische Sommerzeit),1596022907850,13.522233333333334,5,practice
1979,incompatible,476,22,,correct,Graduated High School,1596023719184,large,163,large,female,right,small,f,j,f,German,images/large_stimulus.jpg,Wed Jul 29 2020 13:41:47 GMT+0200 (Mitteleuropäische Sommerzeit),1596022907850,13.522233333333334,6,practice
1979,incompatible,409,22,,incorrect,Graduated High School,1596023719184,small,163,large,female,right,small,f,j,f,German,images/small_stimulus.jpg,Wed Jul 29 2020 13:41:47 GMT+0200 (Mitteleuropäische Sommerzeit),1596022907850,13.522233333333334,7,practice
1979,incompatible,432,22,,correct,Graduated High School,1596023719184,large,163,large,female,right,small,f,j,f,German,images/large_stimulus.jpg,Wed Jul 29 2020 13:41:47 GMT+0200 (Mitteleuropäische Sommerzeit),1596022907850,13.522233333333334,8,practice
1979,incompatible,384,22,,correct,Graduated High School,1596023719184,small,163,large,female,right,small,f,j,j,German,images/small_stimulus.jpg,Wed Jul 29 2020 13:41:47 GMT+0200 (Mitteleuropäische Sommerzeit),1596022907850,13.522233333333334,9,practice
1979,incompatible,367,22,,correct,Graduated High School,1596023719184,small,163,large,female,right,small,f,j,j,German,images/small_stimulus.jpg,Wed Jul 29 2020 13:41:47 GMT+0200 (Mitteleuropäische Sommerzeit),1596022907850,13.522233333333334,10,practice
1979,incompatible,693,22,,correct,Graduated High School,1596023719184,large,163,large,female,right,small,f,j,f,German,images/large_stimulus.jpg,Wed Jul 29 2020 13:41:47 GMT+0200 (Mitteleuropäische Sommerzeit),1596022907850,13.522233333333334,1,main
1979,incompatible,490,22,,correct,Graduated High School,1596023719184,small,163,large,female,right,small,f,j,j,German,images/small_stimulus.jpg,Wed Jul 29 2020 13:41:47 GMT+0200 (Mitteleuropäische Sommerzeit),1596022907850,13.522233333333334,2,main
1979,incompatible,451,22,,correct,Graduated High School,1596023719184,small,163,large,female,right,small,f,j,j,German,images/small_stimulus.jpg,Wed Jul 29 2020 13:41:47 GMT+0200 (Mitteleuropäische Sommerzeit),1596022907850,13.522233333333334,3,main
1979,incompatible,391,22,,correct,Graduated High School,1596023719184,large,163,large,female,right,small,f,j,f,German,images/large_stimulus.jpg,Wed Jul 29 2020 13:41:47 GMT+0200 (Mitteleuropäische Sommerzeit),1596022907850,13.522233333333334,4,main
1979,incompatible,501,22,,correct,Graduated High School,1596023719184,small,163,large,female,right,small,f,j,j,German,images/small_stimulus.jpg,Wed Jul 29 2020 13:41:47 GMT+0200 (Mitteleuropäische Sommerzeit),1596022907850,13.522233333333334,5,main
1979,incompatible,452,22,,correct,Graduated High School,1596023719184,small,163,large,female,right,small,f,j,j,German,images/small_stimulus.jpg,Wed Jul 29 2020 13:41:47 GMT+0200 (Mitteleuropäische Sommerzeit),1596022907850,13.522233333333334,6,main
1979,incompatible,473,22,,correct,Graduated High School,1596023719184,small,163,large,female,right,small,f,j,j,German,images/small_stimulus.jpg,Wed Jul 29 2020 13:41:47 GMT+0200 (Mitteleuropäische Sommerzeit),1596022907850,13.522233333333334,7,main
1979,incompatible,496,22,,correct,Graduated High School,1596023719184,small,163,large,female,right,small,f,j,j,German,images/small_stimulus.jpg,Wed Jul 29 2020 13:41:47 GMT+0200 (Mitteleuropäische Sommerzeit),1596022907850,13.522233333333334,8,main
1979,incompatible,460,22,,correct,Graduated High School,1596023719184,large,163,large,female,right,small,f,j,f,German,images/large_stimulus.jpg,Wed Jul 29 2020 13:41:47 GMT+0200 (Mitteleuropäische Sommerzeit),1596022907850,13.522233333333334,9,main
1979,incompatible,513,22,,correct,Graduated High School,1596023719184,large,163,large,female,right,small,f,j,f,German,images/large_stimulus.jpg,Wed Jul 29 2020 13:41:47 GMT+0200 (Mitteleuropäische Sommerzeit),1596022907850,13.522233333333334,10,main
1979,incompatible,508,22,,correct,Graduated High School,1596023719184,small,163,large,female,right,small,f,j,j,German,images/small_stimulus.jpg,Wed Jul 29 2020 13:41:47 GMT+0200 (Mitteleuropäische Sommerzeit),1596022907850,13.522233333333334,11,main
1979,incompatible,462,22,,correct,Graduated High School,1596023719184,small,163,large,female,right,small,f,j,j,German,images/small_stimulus.jpg,Wed Jul 29 2020 13:41:47 GMT+0200 (Mitteleuropäische Sommerzeit),1596022907850,13.522233333333334,12,main
1979,incompatible,441,22,,correct,Graduated High School,1596023719184,small,163,large,female,right,small,f,j,j,German,images/small_stimulus.jpg,Wed Jul 29 2020 13:41:47 GMT+0200 (Mitteleuropäische Sommerzeit),1596022907850,13.522233333333334,13,main
1979,incompatible,379,22,,correct,Graduated High School,1596023719184,large,163,large,female,right,small,f,j,f,German,images/large_stimulus.jpg,Wed Jul 29 2020 13:41:47 GMT+0200 (Mitteleuropäische Sommerzeit),1596022907850,13.522233333333334,14,main
1979,incompatible,490,22,,correct,Graduated High School,1596023719184,large,163,large,female,right,small,f,j,f,German,images/large_stimulus.jpg,Wed Jul 29 2020 13:41:47 GMT+0200 (Mitteleuropäische Sommerzeit),1596022907850,13.522233333333334,15,main
1979,incompatible,427,22,,correct,Graduated High School,1596023719184,small,163,large,female,right,small,f,j,j,German,images/small_stimulus.jpg,Wed Jul 29 2020 13:41:47 GMT+0200 (Mitteleuropäische Sommerzeit),1596022907850,13.522233333333334,16,main
1979,incompatible,426,22,,correct,Graduated High School,1596023719184,large,163,large,female,right,small,f,j,f,German,images/large_stimulus.jpg,Wed Jul 29 2020 13:41:47 GMT+0200 (Mitteleuropäische Sommerzeit),1596022907850,13.522233333333334,17,main
1979,incompatible,475,22,,correct,Graduated High School,1596023719184,large,163,large,female,right,small,f,j,f,German,images/large_stimulus.jpg,Wed Jul 29 2020 13:41:47 GMT+0200 (Mitteleuropäische Sommerzeit),1596022907850,13.522233333333334,18,main
1979,incompatible,412,22,,correct,Graduated High School,1596023719184,large,163,large,female,right,small,f,j,f,German,images/large_stimulus.jpg,Wed Jul 29 2020 13:41:47 GMT+0200 (Mitteleuropäische Sommerzeit),1596022907850,13.522233333333334,19,main
1979,incompatible,468,22,,correct,Graduated High School,1596023719184,small,163,large,female,right,small,f,j,j,German,images/small_stimulus.jpg,Wed Jul 29 2020 13:41:47 GMT+0200 (Mitteleuropäische Sommerzeit),1596022907850,13.522233333333334,20,main
1979,incompatible,443,22,,correct,Graduated High School,1596023719184,small,163,large,female,right,small,f,j,j,German,images/small_stimulus.jpg,Wed Jul 29 2020 13:41:47 GMT+0200 (Mitteleuropäische Sommerzeit),1596022907850,13.522233333333334,21,main
1979,incompatible,459,22,,correct,Graduated High School,1596023719184,small,163,large,female,right,small,f,j,j,German,images/small_stimulus.jpg,Wed Jul 29 2020 13:41:47 GMT+0200 (Mitteleuropäische Sommerzeit),1596022907850,13.522233333333334,22,main
1979,incompatible,390,22,,correct,Graduated High School,1596023719184,large,163,large,female,right,small,f,j,f,German,images/large_stimulus.jpg,Wed Jul 29 2020 13:41:47 GMT+0200 (Mitteleuropäische Sommerzeit),1596022907850,13.522233333333334,23,main
1979,incompatible,422,22,,correct,Graduated High School,1596023719184,small,163,large,female,right,small,f,j,j,German,images/small_stimulus.jpg,Wed Jul 29 2020 13:41:47 GMT+0200 (Mitteleuropäische Sommerzeit),1596022907850,13.522233333333334,24,main
1979,incompatible,432,22,,correct,Graduated High School,1596023719184,small,163,large,female,right,small,f,j,j,German,images/small_stimulus.jpg,Wed Jul 29 2020 13:41:47 GMT+0200 (Mitteleuropäische Sommerzeit),1596022907850,13.522233333333334,25,main
1979,incompatible,531,22,,correct,Graduated High School,1596023719184,large,163,large,female,right,small,f,j,f,German,images/large_stimulus.jpg,Wed Jul 29 2020 13:41:47 GMT+0200 (Mitteleuropäische Sommerzeit),1596022907850,13.522233333333334,26,main
1979,incompatible,496,22,,correct,Graduated High School,1596023719184,large,163,large,female,right,small,f,j,f,German,images/large_stimulus.jpg,Wed Jul 29 2020 13:41:47 GMT+0200 (Mitteleuropäische Sommerzeit),1596022907850,13.522233333333334,27,main
1979,incompatible,445,22,,correct,Graduated High School,1596023719184,small,163,large,female,right,small,f,j,j,German,images/small_stimulus.jpg,Wed Jul 29 2020 13:41:47 GMT+0200 (Mitteleuropäische Sommerzeit),1596022907850,13.522233333333334,28,main
1979,incompatible,424,22,,correct,Graduated High School,1596023719184,large,163,large,female,right,small,f,j,f,German,images/large_stimulus.jpg,Wed Jul 29 2020 13:41:47 GMT+0200 (Mitteleuropäische Sommerzeit),1596022907850,13.522233333333334,29,main
1979,incompatible,560,22,,correct,Graduated High School,1596023719184,small,163,large,female,right,small,f,j,j,German,images/small_stimulus.jpg,Wed Jul 29 2020 13:41:47 GMT+0200 (Mitteleuropäische Sommerzeit),1596022907850,13.522233333333334,30,main
1979,incompatible,519,22,,correct,Graduated High School,1596023719184,small,163,large,female,right,small,f,j,j,German,images/small_stimulus.jpg,Wed Jul 29 2020 13:41:47 GMT+0200 (Mitteleuropäische Sommerzeit),1596022907850,13.522233333333334,31,main
1979,incompatible,370,22,,correct,Graduated High School,1596023719184,large,163,large,female,right,small,f,j,f,German,images/large_stimulus.jpg,Wed Jul 29 2020 13:41:47 GMT+0200 (Mitteleuropäische Sommerzeit),1596022907850,13.522233333333334,32,main
1979,incompatible,603,22,,correct,Graduated High School,1596023719184,large,163,large,female,right,small,f,j,f,German,images/large_stimulus.jpg,Wed Jul 29 2020 13:41:47 GMT+0200 (Mitteleuropäische Sommerzeit),1596022907850,13.522233333333334,33,main
1979,incompatible,407,22,,correct,Graduated High School,1596023719184,large,163,large,female,right,small,f,j,f,German,images/large_stimulus.jpg,Wed Jul 29 2020 13:41:47 GMT+0200 (Mitteleuropäische Sommerzeit),1596022907850,13.522233333333334,34,main
1979,incompatible,414,22,,correct,Graduated High School,1596023719184,large,163,large,female,right,small,f,j,f,German,images/large_stimulus.jpg,Wed Jul 29 2020 13:41:47 GMT+0200 (Mitteleuropäische Sommerzeit),1596022907850,13.522233333333334,35,main
1979,incompatible,481,22,,correct,Graduated High School,1596023719184,large,163,large,female,right,small,f,j,f,German,images/large_stimulus.jpg,Wed Jul 29 2020 13:41:47 GMT+0200 (Mitteleuropäische Sommerzeit),1596022907850,13.522233333333334,36,main
1979,incompatible,588,22,,correct,Graduated High School,1596023719184,small,163,large,female,right,small,f,j,j,German,images/small_stimulus.jpg,Wed Jul 29 2020 13:41:47 GMT+0200 (Mitteleuropäische Sommerzeit),1596022907850,13.522233333333334,37,main
1979,incompatible,506,22,,correct,Graduated High School,1596023719184,large,163,large,female,right,small,f,j,f,German,images/large_stimulus.jpg,Wed Jul 29 2020 13:41:47 GMT+0200 (Mitteleuropäische Sommerzeit),1596022907850,13.522233333333334,38,main
1979,incompatible,597,22,,correct,Graduated High School,1596023719184,small,163,large,female,right,small,f,j,j,German,images/small_stimulus.jpg,Wed Jul 29 2020 13:41:47 GMT+0200 (Mitteleuropäische Sommerzeit),1596022907850,13.522233333333334,39,main
1979,incompatible,620,22,,correct,Graduated High School,1596023719184,large,163,large,female,right,small,f,j,f,German,images/large_stimulus.jpg,Wed Jul 29 2020 13:41:47 GMT+0200 (Mitteleuropäische Sommerzeit),1596022907850,13.522233333333334,40,main
1979,incompatible,496,22,,correct,Graduated High School,1596023719184,large,163,large,female,right,small,f,j,f,German,images/large_stimulus.jpg,Wed Jul 29 2020 13:41:47 GMT+0200 (Mitteleuropäische Sommerzeit),1596022907850,13.522233333333334,41,main
1979,incompatible,537,22,,correct,Graduated High School,1596023719184,small,163,large,female,right,small,f,j,j,German,images/small_stimulus.jpg,Wed Jul 29 2020 13:41:47 GMT+0200 (Mitteleuropäische Sommerzeit),1596022907850,13.522233333333334,42,main
1979,incompatible,524,22,,correct,Graduated High School,1596023719184,small,163,large,female,right,small,f,j,j,German,images/small_stimulus.jpg,Wed Jul 29 2020 13:41:47 GMT+0200 (Mitteleuropäische Sommerzeit),1596022907850,13.522233333333334,43,main
1979,incompatible,473,22,,correct,Graduated High School,1596023719184,large,163,large,female,right,small,f,j,f,German,images/large_stimulus.jpg,Wed Jul 29 2020 13:41:47 GMT+0200 (Mitteleuropäische Sommerzeit),1596022907850,13.522233333333334,44,main
1979,incompatible,554,22,,correct,Graduated High School,1596023719184,large,163,large,female,right,small,f,j,f,German,images/large_stimulus.jpg,Wed Jul 29 2020 13:41:47 GMT+0200 (Mitteleuropäische Sommerzeit),1596022907850,13.522233333333334,45,main
1979,incompatible,499,22,,correct,Graduated High School,1596023719184,small,163,large,female,right,small,f,j,j,German,images/small_stimulus.jpg,Wed Jul 29 2020 13:41:47 GMT+0200 (Mitteleuropäische Sommerzeit),1596022907850,13.522233333333334,46,main
1979,incompatible,527,22,,correct,Graduated High School,1596023719184,small,163,large,female,right,small,f,j,j,German,images/small_stimulus.jpg,Wed Jul 29 2020 13:41:47 GMT+0200 (Mitteleuropäische Sommerzeit),1596022907850,13.522233333333334,47,main
1979,incompatible,564,22,,correct,Graduated High School,1596023719184,small,163,large,female,right,small,f,j,j,German,images/small_stimulus.jpg,Wed Jul 29 2020 13:41:47 GMT+0200 (Mitteleuropäische Sommerzeit),1596022907850,13.522233333333334,48,main
1979,incompatible,385,22,,correct,Graduated High School,1596023719184,large,163,large,female,right,small,f,j,f,German,images/large_stimulus.jpg,Wed Jul 29 2020 13:41:47 GMT+0200 (Mitteleuropäische Sommerzeit),1596022907850,13.522233333333334,49,main
1979,incompatible,423,22,,correct,Graduated High School,1596023719184,large,163,large,female,right,small,f,j,f,German,images/large_stimulus.jpg,Wed Jul 29 2020 13:41:47 GMT+0200 (Mitteleuropäische Sommerzeit),1596022907850,13.522233333333334,50,main
1979,incompatible,526,22,,correct,Graduated High School,1596023719184,large,163,large,female,right,small,f,j,f,German,images/large_stimulus.jpg,Wed Jul 29 2020 13:41:47 GMT+0200 (Mitteleuropäische Sommerzeit),1596022907850,13.522233333333334,51,main
1979,incompatible,599,22,,correct,Graduated High School,1596023719184,small,163,large,female,right,small,f,j,j,German,images/small_stimulus.jpg,Wed Jul 29 2020 13:41:47 GMT+0200 (Mitteleuropäische Sommerzeit),1596022907850,13.522233333333334,52,main
1979,incompatible,453,22,,correct,Graduated High School,1596023719184,large,163,large,female,right,small,f,j,f,German,images/large_stimulus.jpg,Wed Jul 29 2020 13:41:47 GMT+0200 (Mitteleuropäische Sommerzeit),1596022907850,13.522233333333334,53,main
1979,incompatible,504,22,,correct,Graduated High School,1596023719184,large,163,large,female,right,small,f,j,f,German,images/large_stimulus.jpg,Wed Jul 29 2020 13:41:47 GMT+0200 (Mitteleuropäische Sommerzeit),1596022907850,13.522233333333334,54,main
1979,incompatible,502,22,,correct,Graduated High School,1596023719184,small,163,large,female,right,small,f,j,j,German,images/small_stimulus.jpg,Wed Jul 29 2020 13:41:47 GMT+0200 (Mitteleuropäische Sommerzeit),1596022907850,13.522233333333334,55,main
1979,incompatible,550,22,,correct,Graduated High School,1596023719184,large,163,large,female,right,small,f,j,f,German,images/large_stimulus.jpg,Wed Jul 29 2020 13:41:47 GMT+0200 (Mitteleuropäische Sommerzeit),1596022907850,13.522233333333334,56,main
1979,incompatible,566,22,,correct,Graduated High School,1596023719184,small,163,large,female,right,small,f,j,j,German,images/small_stimulus.jpg,Wed Jul 29 2020 13:41:47 GMT+0200 (Mitteleuropäische Sommerzeit),1596022907850,13.522233333333334,57,main
1979,incompatible,421,22,,correct,Graduated High School,1596023719184,large,163,large,female,right,small,f,j,f,German,images/large_stimulus.jpg,Wed Jul 29 2020 13:41:47 GMT+0200 (Mitteleuropäische Sommerzeit),1596022907850,13.522233333333334,58,main
1979,incompatible,560,22,,correct,Graduated High School,1596023719184,small,163,large,female,right,small,f,j,j,German,images/small_stimulus.jpg,Wed Jul 29 2020 13:41:47 GMT+0200 (Mitteleuropäische Sommerzeit),1596022907850,13.522233333333334,59,main
1979,incompatible,470,22,,correct,Graduated High School,1596023719184,small,163,large,female,right,small,f,j,j,German,images/small_stimulus.jpg,Wed Jul 29 2020 13:41:47 GMT+0200 (Mitteleuropäische Sommerzeit),1596022907850,13.522233333333334,60,main
1979,compatible,773,22,,correct,Graduated High School,1596023719184,small,163,small,female,right,large,f,j,f,German,images/small_stimulus.jpg,Wed Jul 29 2020 13:41:47 GMT+0200 (Mitteleuropäische Sommerzeit),1596022907850,13.522233333333334,1,practice
1979,compatible,581,22,,correct,Graduated High School,1596023719184,large,163,small,female,right,large,f,j,j,German,images/large_stimulus.jpg,Wed Jul 29 2020 13:41:47 GMT+0200 (Mitteleuropäische Sommerzeit),1596022907850,13.522233333333334,2,practice
1979,compatible,869,22,,correct,Graduated High School,1596023719184,large,163,small,female,right,large,f,j,j,German,images/large_stimulus.jpg,Wed Jul 29 2020 13:41:47 GMT+0200 (Mitteleuropäische Sommerzeit),1596022907850,13.522233333333334,3,practice
1979,compatible,564,22,,correct,Graduated High School,1596023719184,large,163,small,female,right,large,f,j,j,German,images/large_stimulus.jpg,Wed Jul 29 2020 13:41:47 GMT+0200 (Mitteleuropäische Sommerzeit),1596022907850,13.522233333333334,4,practice
1979,compatible,432,22,,correct,Graduated High School,1596023719184,small,163,small,female,right,large,f,j,f,German,images/small_stimulus.jpg,Wed Jul 29 2020 13:41:47 GMT+0200 (Mitteleuropäische Sommerzeit),1596022907850,13.522233333333334,5,practice
1979,compatible,612,22,,correct,Graduated High School,1596023719184,large,163,small,female,right,large,f,j,j,German,images/large_stimulus.jpg,Wed Jul 29 2020 13:41:47 GMT+0200 (Mitteleuropäische Sommerzeit),1596022907850,13.522233333333334,6,practice
1979,compatible,419,22,,correct,Graduated High School,1596023719184,small,163,small,female,right,large,f,j,f,German,images/small_stimulus.jpg,Wed Jul 29 2020 13:41:47 GMT+0200 (Mitteleuropäische Sommerzeit),1596022907850,13.522233333333334,7,practice
1979,compatible,557,22,,correct,Graduated High School,1596023719184,small,163,small,female,right,large,f,j,f,German,images/small_stimulus.jpg,Wed Jul 29 2020 13:41:47 GMT+0200 (Mitteleuropäische Sommerzeit),1596022907850,13.522233333333334,8,practice
1979,compatible,486,22,,correct,Graduated High School,1596023719184,large,163,small,female,right,large,f,j,j,German,images/large_stimulus.jpg,Wed Jul 29 2020 13:41:47 GMT+0200 (Mitteleuropäische Sommerzeit),1596022907850,13.522233333333334,9,practice
1979,compatible,446,22,,correct,Graduated High School,1596023719184,small,163,small,female,right,large,f,j,f,German,images/small_stimulus.jpg,Wed Jul 29 2020 13:41:47 GMT+0200 (Mitteleuropäische Sommerzeit),1596022907850,13.522233333333334,10,practice
1979,compatible,382,22,,correct,Graduated High School,1596023719184,large,163,small,female,right,large,f,j,j,German,images/large_stimulus.jpg,Wed Jul 29 2020 13:41:47 GMT+0200 (Mitteleuropäische Sommerzeit),1596022907850,13.522233333333334,11,practice
1979,compatible,510,22,,correct,Graduated High School,1596023719184,small,163,small,female,right,large,f,j,f,German,images/small_stimulus.jpg,Wed Jul 29 2020 13:41:47 GMT+0200 (Mitteleuropäische Sommerzeit),1596022907850,13.522233333333334,12,practice
1979,compatible,508,22,,correct,Graduated High School,1596023719184,small,163,small,female,right,large,f,j,f,German,images/small_stimulus.jpg,Wed Jul 29 2020 13:41:47 GMT+0200 (Mitteleuropäische Sommerzeit),1596022907850,13.522233333333334,13,practice
1979,compatible,436,22,,correct,Graduated High School,1596023719184,large,163,small,female,right,large,f,j,j,German,images/large_stimulus.jpg,Wed Jul 29 2020 13:41:47 GMT+0200 (Mitteleuropäische Sommerzeit),1596022907850,13.522233333333334,14,practice
1979,compatible,445,22,,correct,Graduated High School,1596023719184,small,163,small,female,right,large,f,j,f,German,images/small_stimulus.jpg,Wed Jul 29 2020 13:41:47 GMT+0200 (Mitteleuropäische Sommerzeit),1596022907850,13.522233333333334,15,practice
1979,compatible,372,22,,correct,Graduated High School,1596023719184,large,163,small,female,right,large,f,j,j,German,images/large_stimulus.jpg,Wed Jul 29 2020 13:41:47 GMT+0200 (Mitteleuropäische Sommerzeit),1596022907850,13.522233333333334,16,practice
1979,compatible,350,22,,incorrect,Graduated High School,1596023719184,large,163,small,female,right,large,f,j,f,German,images/large_stimulus.jpg,Wed Jul 29 2020 13:41:47 GMT+0200 (Mitteleuropäische Sommerzeit),1596022907850,13.522233333333334,17,practice
1979,compatible,761,22,,correct,Graduated High School,1596023719184,large,163,small,female,right,large,f,j,j,German,images/large_stimulus.jpg,Wed Jul 29 2020 13:41:47 GMT+0200 (Mitteleuropäische Sommerzeit),1596022907850,13.522233333333334,18,practice
1979,compatible,463,22,,correct,Graduated High School,1596023719184,small,163,small,female,right,large,f,j,f,German,images/small_stimulus.jpg,Wed Jul 29 2020 13:41:47 GMT+0200 (Mitteleuropäische Sommerzeit),1596022907850,13.522233333333334,19,practice
1979,compatible,461,22,,correct,Graduated High School,1596023719184,large,163,small,female,right,large,f,j,j,German,images/large_stimulus.jpg,Wed Jul 29 2020 13:41:47 GMT+0200 (Mitteleuropäische Sommerzeit),1596022907850,13.522233333333334,20,practice
1979,compatible,465,22,,correct,Graduated High School,1596023719184,large,163,small,female,right,large,f,j,j,German,images/large_stimulus.jpg,Wed Jul 29 2020 13:41:47 GMT+0200 (Mitteleuropäische Sommerzeit),1596022907850,13.522233333333334,1,main
1979,compatible,538,22,,correct,Graduated High School,1596023719184,large,163,small,female,right,large,f,j,j,German,images/large_stimulus.jpg,Wed Jul 29 2020 13:41:47 GMT+0200 (Mitteleuropäische Sommerzeit),1596022907850,13.522233333333334,2,main
1979,compatible,516,22,,correct,Graduated High School,1596023719184,large,163,small,female,right,large,f,j,j,German,images/large_stimulus.jpg,Wed Jul 29 2020 13:41:47 GMT+0200 (Mitteleuropäische Sommerzeit),1596022907850,13.522233333333334,3,main
1979,compatible,538,22,,correct,Graduated High School,1596023719184,large,163,small,female,right,large,f,j,j,German,images/large_stimulus.jpg,Wed Jul 29 2020 13:41:47 GMT+0200 (Mitteleuropäische Sommerzeit),1596022907850,13.522233333333334,4,main
1979,compatible,616,22,,correct,Graduated High School,1596023719184,small,163,small,female,right,large,f,j,f,German,images/small_stimulus.jpg,Wed Jul 29 2020 13:41:47 GMT+0200 (Mitteleuropäische Sommerzeit),1596022907850,13.522233333333334,5,main
1979,compatible,406,22,,correct,Graduated High School,1596023719184,large,163,small,female,right,large,f,j,j,German,images/large_stimulus.jpg,Wed Jul 29 2020 13:41:47 GMT+0200 (Mitteleuropäische Sommerzeit),1596022907850,13.522233333333334,6,main
1979,compatible,443,22,,correct,Graduated High School,1596023719184,large,163,small,female,right,large,f,j,j,German,images/large_stimulus.jpg,Wed Jul 29 2020 13:41:47 GMT+0200 (Mitteleuropäische Sommerzeit),1596022907850,13.522233333333334,7,main
1979,compatible,478,22,,correct,Graduated High School,1596023719184,small,163,small,female,right,large,f,j,f,German,images/small_stimulus.jpg,Wed Jul 29 2020 13:41:47 GMT+0200 (Mitteleuropäische Sommerzeit),1596022907850,13.522233333333334,8,main
1979,compatible,415,22,,correct,Graduated High School,1596023719184,large,163,small,female,right,large,f,j,j,German,images/large_stimulus.jpg,Wed Jul 29 2020 13:41:47 GMT+0200 (Mitteleuropäische Sommerzeit),1596022907850,13.522233333333334,9,main
1979,compatible,440,22,,correct,Graduated High School,1596023719184,small,163,small,female,right,large,f,j,f,German,images/small_stimulus.jpg,Wed Jul 29 2020 13:41:47 GMT+0200 (Mitteleuropäische Sommerzeit),1596022907850,13.522233333333334,10,main
1979,compatible,439,22,,correct,Graduated High School,1596023719184,large,163,small,female,right,large,f,j,j,German,images/large_stimulus.jpg,Wed Jul 29 2020 13:41:47 GMT+0200 (Mitteleuropäische Sommerzeit),1596022907850,13.522233333333334,11,main
1979,compatible,562,22,,correct,Graduated High School,1596023719184,large,163,small,female,right,large,f,j,j,German,images/large_stimulus.jpg,Wed Jul 29 2020 13:41:47 GMT+0200 (Mitteleuropäische Sommerzeit),1596022907850,13.522233333333334,12,main
1979,compatible,509,22,,correct,Graduated High School,1596023719184,large,163,small,female,right,large,f,j,j,German,images/large_stimulus.jpg,Wed Jul 29 2020 13:41:47 GMT+0200 (Mitteleuropäische Sommerzeit),1596022907850,13.522233333333334,13,main
1979,compatible,447,22,,correct,Graduated High School,1596023719184,large,163,small,female,right,large,f,j,j,German,images/large_stimulus.jpg,Wed Jul 29 2020 13:41:47 GMT+0200 (Mitteleuropäische Sommerzeit),1596022907850,13.522233333333334,14,main
1979,compatible,376,22,,correct,Graduated High School,1596023719184,small,163,small,female,right,large,f,j,f,German,images/small_stimulus.jpg,Wed Jul 29 2020 13:41:47 GMT+0200 (Mitteleuropäische Sommerzeit),1596022907850,13.522233333333334,15,main
1979,compatible,417,22,,correct,Graduated High School,1596023719184,large,163,small,female,right,large,f,j,j,German,images/large_stimulus.jpg,Wed Jul 29 2020 13:41:47 GMT+0200 (Mitteleuropäische Sommerzeit),1596022907850,13.522233333333334,16,main
1979,compatible,628,22,,correct,Graduated High School,1596023719184,large,163,small,female,right,large,f,j,j,German,images/large_stimulus.jpg,Wed Jul 29 2020 13:41:47 GMT+0200 (Mitteleuropäische Sommerzeit),1596022907850,13.522233333333334,17,main
1979,compatible,509,22,,correct,Graduated High School,1596023719184,small,163,small,female,right,large,f,j,f,German,images/small_stimulus.jpg,Wed Jul 29 2020 13:41:47 GMT+0200 (Mitteleuropäische Sommerzeit),1596022907850,13.522233333333334,18,main
1979,compatible,491,22,,correct,Graduated High School,1596023719184,small,163,small,female,right,large,f,j,f,German,images/small_stimulus.jpg,Wed Jul 29 2020 13:41:47 GMT+0200 (Mitteleuropäische Sommerzeit),1596022907850,13.522233333333334,19,main
