"trial_type","trial_number","key_pressed","correctness","RT","picture","key1","key2","f","j","expected","Mapping","startDate","startTime","age","gender","handedness","education","languages","comments","endTime","timeSpent","experiment_id",
"practice","1","j","correct","3209","images/large_stimulus.jpg","f","j","small","large","large","compatible","Tue Jul 21 2020 20:23:12 GMT+0200 (Central European Summer Time)","1595355792343","22","male","right","Graduated High School","german","","1595356488621","11.604633333333334","INSERT_A_NUMBER",
"practice","2","j","correct","3018","images/large_stimulus.jpg","f","j","small","large","large","compatible","Tue Jul 21 2020 20:23:12 GMT+0200 (Central European Summer Time)","1595355792343","22","male","right","Graduated High School","german","","1595356488621","11.604633333333334","INSERT_A_NUMBER",
"practice","3","j","correct","2918","images/large_stimulus.jpg","f","j","small","large","large","compatible","Tue Jul 21 2020 20:23:12 GMT+0200 (Central European Summer Time)","1595355792343","22","male","right","Graduated High School","german","","1595356488621","11.604633333333334","INSERT_A_NUMBER",
"practice","4","f","correct","3153","images/small_stimulus.jpg","f","j","small","large","small","compatible","Tue Jul 21 2020 20:23:12 GMT+0200 (Central European Summer Time)","1595355792343","22","male","right","Graduated High School","german","","1595356488621","11.604633333333334","INSERT_A_NUMBER",
"practice","5","j","correct","2926","images/large_stimulus.jpg","f","j","small","large","large","compatible","Tue Jul 21 2020 20:23:12 GMT+0200 (Central European Summer Time)","1595355792343","22","male","right","Graduated High School","german","","1595356488621","11.604633333333334","INSERT_A_NUMBER",
"practice","6","f","correct","2918","images/small_stimulus.jpg","f","j","small","large","small","compatible","Tue Jul 21 2020 20:23:12 GMT+0200 (Central European Summer Time)","1595355792343","22","male","right","Graduated High School","german","","1595356488621","11.604633333333334","INSERT_A_NUMBER",
"practice","7","f","correct","3036","images/small_stimulus.jpg","f","j","small","large","small","compatible","Tue Jul 21 2020 20:23:12 GMT+0200 (Central European Summer Time)","1595355792343","22","male","right","Graduated High School","german","","1595356488621","11.604633333333334","INSERT_A_NUMBER",
"practice","8","j","correct","3040","images/large_stimulus.jpg","f","j","small","large","large","compatible","Tue Jul 21 2020 20:23:12 GMT+0200 (Central European Summer Time)","1595355792343","22","male","right","Graduated High School","german","","1595356488621","11.604633333333334","INSERT_A_NUMBER",
"practice","9","f","correct","3145","images/small_stimulus.jpg","f","j","small","large","small","compatible","Tue Jul 21 2020 20:23:12 GMT+0200 (Central European Summer Time)","1595355792343","22","male","right","Graduated High School","german","","1595356488621","11.604633333333334","INSERT_A_NUMBER",
"practice","10","f","correct","2956","images/small_stimulus.jpg","f","j","small","large","small","compatible","Tue Jul 21 2020 20:23:12 GMT+0200 (Central European Summer Time)","1595355792343","22","male","right","Graduated High School","german","","1595356488621","11.604633333333334","INSERT_A_NUMBER",
"main","1","f","correct","3100","images/small_stimulus.jpg","f","j","small","large","small","compatible","Tue Jul 21 2020 20:23:12 GMT+0200 (Central European Summer Time)","1595355792343","22","male","right","Graduated High School","german","","1595356488621","11.604633333333334","INSERT_A_NUMBER",
"main","2","f","correct","2910","images/small_stimulus.jpg","f","j","small","large","small","compatible","Tue Jul 21 2020 20:23:12 GMT+0200 (Central European Summer Time)","1595355792343","22","male","right","Graduated High School","german","","1595356488621","11.604633333333334","INSERT_A_NUMBER",
"main","3","j","correct","2896","images/large_stimulus.jpg","f","j","small","large","large","compatible","Tue Jul 21 2020 20:23:12 GMT+0200 (Central European Summer Time)","1595355792343","22","male","right","Graduated High School","german","","1595356488621","11.604633333333334","INSERT_A_NUMBER",
"main","4","j","correct","2939","images/large_stimulus.jpg","f","j","small","large","large","compatible","Tue Jul 21 2020 20:23:12 GMT+0200 (Central European Summer Time)","1595355792343","22","male","right","Graduated High School","german","","1595356488621","11.604633333333334","INSERT_A_NUMBER",
"main","5","j","correct","2921","images/large_stimulus.jpg","f","j","small","large","large","compatible","Tue Jul 21 2020 20:23:12 GMT+0200 (Central European Summer Time)","1595355792343","22","male","right","Graduated High School","german","","1595356488621","11.604633333333334","INSERT_A_NUMBER",
"main","6","j","correct","2957","images/large_stimulus.jpg","f","j","small","large","large","compatible","Tue Jul 21 2020 20:23:12 GMT+0200 (Central European Summer Time)","1595355792343","22","male","right","Graduated High School","german","","1595356488621","11.604633333333334","INSERT_A_NUMBER",
"main","7","f","correct","3063","images/small_stimulus.jpg","f","j","small","large","small","compatible","Tue Jul 21 2020 20:23:12 GMT+0200 (Central European Summer Time)","1595355792343","22","male","right","Graduated High School","german","","1595356488621","11.604633333333334","INSERT_A_NUMBER",
"main","8","j","correct","3022","images/large_stimulus.jpg","f","j","small","large","large","compatible","Tue Jul 21 2020 20:23:12 GMT+0200 (Central European Summer Time)","1595355792343","22","male","right","Graduated High School","german","","1595356488621","11.604633333333334","INSERT_A_NUMBER",
"main","9","j","correct","2976","images/large_stimulus.jpg","f","j","small","large","large","compatible","Tue Jul 21 2020 20:23:12 GMT+0200 (Central European Summer Time)","1595355792343","22","male","right","Graduated High School","german","","1595356488621","11.604633333333334","INSERT_A_NUMBER",
"main","10","f","correct","2938","images/small_stimulus.jpg","f","j","small","large","small","compatible","Tue Jul 21 2020 20:23:12 GMT+0200 (Central European Summer Time)","1595355792343","22","male","right","Graduated High School","german","","1595356488621","11.604633333333334","INSERT_A_NUMBER",
"main","11","j","correct","2947","images/large_stimulus.jpg","f","j","small","large","large","compatible","Tue Jul 21 2020 20:23:12 GMT+0200 (Central European Summer Time)","1595355792343","22","male","right","Graduated High School","german","","1595356488621","11.604633333333334","INSERT_A_NUMBER",
"main","12","j","correct","2985","images/large_stimulus.jpg","f","j","small","large","large","compatible","Tue Jul 21 2020 20:23:12 GMT+0200 (Central European Summer Time)","1595355792343","22","male","right","Graduated High School","german","","1595356488621","11.604633333333334","INSERT_A_NUMBER",
"main","13","f","correct","2875","images/small_stimulus.jpg","f","j","small","large","small","compatible","Tue Jul 21 2020 20:23:12 GMT+0200 (Central European Summer Time)","1595355792343","22","male","right","Graduated High School","german","","1595356488621","11.604633333333334","INSERT_A_NUMBER",
"main","14","j","correct","2911","images/large_stimulus.jpg","f","j","small","large","large","compatible","Tue Jul 21 2020 20:23:12 GMT+0200 (Central European Summer Time)","1595355792343","22","male","right","Graduated High School","german","","1595356488621","11.604633333333334","INSERT_A_NUMBER",
"main","15","f","correct","2910","images/small_stimulus.jpg","f","j","small","large","small","compatible","Tue Jul 21 2020 20:23:12 GMT+0200 (Central European Summer Time)","1595355792343","22","male","right","Graduated High School","german","","1595356488621","11.604633333333334","INSERT_A_NUMBER",
"main","16","f","correct","3026","images/small_stimulus.jpg","f","j","small","large","small","compatible","Tue Jul 21 2020 20:23:12 GMT+0200 (Central European Summer Time)","1595355792343","22","male","right","Graduated High School","german","","1595356488621","11.604633333333334","INSERT_A_NUMBER",
"main","17","j","correct","3024","images/large_stimulus.jpg","f","j","small","large","large","compatible","Tue Jul 21 2020 20:23:12 GMT+0200 (Central European Summer Time)","1595355792343","22","male","right","Graduated High School","german","","1595356488621","11.604633333333334","INSERT_A_NUMBER",
"main","18","j","correct","2973","images/large_stimulus.jpg","f","j","small","large","large","compatible","Tue Jul 21 2020 20:23:12 GMT+0200 (Central European Summer Time)","1595355792343","22","male","right","Graduated High School","german","","1595356488621","11.604633333333334","INSERT_A_NUMBER",
"main","19","f","correct","2926","images/small_stimulus.jpg","f","j","small","large","small","compatible","Tue Jul 21 2020 20:23:12 GMT+0200 (Central European Summer Time)","1595355792343","22","male","right","Graduated High School","german","","1595356488621","11.604633333333334","INSERT_A_NUMBER",
"main","20","j","correct","2973","images/large_stimulus.jpg","f","j","small","large","large","compatible","Tue Jul 21 2020 20:23:12 GMT+0200 (Central European Summer Time)","1595355792343","22","male","right","Graduated High School","german","","1595356488621","11.604633333333334","INSERT_A_NUMBER",
"main","21","j","correct","3010","images/large_stimulus.jpg","f","j","small","large","large","compatible","Tue Jul 21 2020 20:23:12 GMT+0200 (Central European Summer Time)","1595355792343","22","male","right","Graduated High School","german","","1595356488621","11.604633333333334","INSERT_A_NUMBER",
"main","22","j","correct","2986","images/large_stimulus.jpg","f","j","small","large","large","compatible","Tue Jul 21 2020 20:23:12 GMT+0200 (Central European Summer Time)","1595355792343","22","male","right","Graduated High School","german","","1595356488621","11.604633333333334","INSERT_A_NUMBER",
"main","23","j","correct","3011","images/large_stimulus.jpg","f","j","small","large","large","compatible","Tue Jul 21 2020 20:23:12 GMT+0200 (Central European Summer Time)","1595355792343","22","male","right","Graduated High School","german","","1595356488621","11.604633333333334","INSERT_A_NUMBER",
"main","24","f","correct","3009","images/small_stimulus.jpg","f","j","small","large","small","compatible","Tue Jul 21 2020 20:23:12 GMT+0200 (Central European Summer Time)","1595355792343","22","male","right","Graduated High School","german","","1595356488621","11.604633333333334","INSERT_A_NUMBER",
"main","25","j","correct","3044","images/large_stimulus.jpg","f","j","small","large","large","compatible","Tue Jul 21 2020 20:23:12 GMT+0200 (Central European Summer Time)","1595355792343","22","male","right","Graduated High School","german","","1595356488621","11.604633333333334","INSERT_A_NUMBER",
"main","26","f","correct","3149","images/small_stimulus.jpg","f","j","small","large","small","compatible","Tue Jul 21 2020 20:23:12 GMT+0200 (Central European Summer Time)","1595355792343","22","male","right","Graduated High School","german","","1595356488621","11.604633333333334","INSERT_A_NUMBER",
"main","27","f","correct","3077","images/small_stimulus.jpg","f","j","small","large","small","compatible","Tue Jul 21 2020 20:23:12 GMT+0200 (Central European Summer Time)","1595355792343","22","male","right","Graduated High School","german","","1595356488621","11.604633333333334","INSERT_A_NUMBER",
"main","28","j","correct","3038","images/large_stimulus.jpg","f","j","small","large","large","compatible","Tue Jul 21 2020 20:23:12 GMT+0200 (Central European Summer Time)","1595355792343","22","male","right","Graduated High School","german","","1595356488621","11.604633333333334","INSERT_A_NUMBER",
"main","29","f","correct","3107","images/small_stimulus.jpg","f","j","small","large","small","compatible","Tue Jul 21 2020 20:23:12 GMT+0200 (Central European Summer Time)","1595355792343","22","male","right","Graduated High School","german","","1595356488621","11.604633333333334","INSERT_A_NUMBER",
"main","30","j","correct","3625","images/large_stimulus.jpg","f","j","small","large","large","compatible","Tue Jul 21 2020 20:23:12 GMT+0200 (Central European Summer Time)","1595355792343","22","male","right","Graduated High School","german","","1595356488621","11.604633333333334","INSERT_A_NUMBER",
"main","31","f","correct","3215","images/small_stimulus.jpg","f","j","small","large","small","compatible","Tue Jul 21 2020 20:23:12 GMT+0200 (Central European Summer Time)","1595355792343","22","male","right","Graduated High School","german","","1595356488621","11.604633333333334","INSERT_A_NUMBER",
"main","32","j","correct","3028","images/large_stimulus.jpg","f","j","small","large","large","compatible","Tue Jul 21 2020 20:23:12 GMT+0200 (Central European Summer Time)","1595355792343","22","male","right","Graduated High School","german","","1595356488621","11.604633333333334","INSERT_A_NUMBER",
"main","33","f","correct","3148","images/small_stimulus.jpg","f","j","small","large","small","compatible","Tue Jul 21 2020 20:23:12 GMT+0200 (Central European Summer Time)","1595355792343","22","male","right","Graduated High School","german","","1595356488621","11.604633333333334","INSERT_A_NUMBER",
"main","34","f","correct","2958","images/small_stimulus.jpg","f","j","small","large","small","compatible","Tue Jul 21 2020 20:23:12 GMT+0200 (Central European Summer Time)","1595355792343","22","male","right","Graduated High School","german","","1595356488621","11.604633333333334","INSERT_A_NUMBER",
"main","35","f","correct","2953","images/small_stimulus.jpg","f","j","small","large","small","compatible","Tue Jul 21 2020 20:23:12 GMT+0200 (Central European Summer Time)","1595355792343","22","male","right","Graduated High School","german","","1595356488621","11.604633333333334","INSERT_A_NUMBER",
"main","36","j","correct","2942","images/large_stimulus.jpg","f","j","small","large","large","compatible","Tue Jul 21 2020 20:23:12 GMT+0200 (Central European Summer Time)","1595355792343","22","male","right","Graduated High School","german","","1595356488621","11.604633333333334","INSERT_A_NUMBER",
"main","37","j","correct","3199","images/large_stimulus.jpg","f","j","small","large","large","compatible","Tue Jul 21 2020 20:23:12 GMT+0200 (Central European Summer Time)","1595355792343","22","male","right","Graduated High School","german","","1595356488621","11.604633333333334","INSERT_A_NUMBER",
"main","38","f","correct","3067","images/small_stimulus.jpg","f","j","small","large","small","compatible","Tue Jul 21 2020 20:23:12 GMT+0200 (Central European Summer Time)","1595355792343","22","male","right","Graduated High School","german","","1595356488621","11.604633333333334","INSERT_A_NUMBER",
"main","39","f","correct","3065","images/small_stimulus.jpg","f","j","small","large","small","compatible","Tue Jul 21 2020 20:23:12 GMT+0200 (Central European Summer Time)","1595355792343","22","male","right","Graduated High School","german","","1595356488621","11.604633333333334","INSERT_A_NUMBER",
"main","40","f","correct","3048","images/small_stimulus.jpg","f","j","small","large","small","compatible","Tue Jul 21 2020 20:23:12 GMT+0200 (Central European Summer Time)","1595355792343","22","male","right","Graduated High School","german","","1595356488621","11.604633333333334","INSERT_A_NUMBER",
"main","41","j","correct","3036","images/large_stimulus.jpg","f","j","small","large","large","compatible","Tue Jul 21 2020 20:23:12 GMT+0200 (Central European Summer Time)","1595355792343","22","male","right","Graduated High School","german","","1595356488621","11.604633333333334","INSERT_A_NUMBER",
"main","42","f","correct","3057","images/small_stimulus.jpg","f","j","small","large","small","compatible","Tue Jul 21 2020 20:23:12 GMT+0200 (Central European Summer Time)","1595355792343","22","male","right","Graduated High School","german","","1595356488621","11.604633333333334","INSERT_A_NUMBER",
"main","43","f","correct","3116","images/small_stimulus.jpg","f","j","small","large","small","compatible","Tue Jul 21 2020 20:23:12 GMT+0200 (Central European Summer Time)","1595355792343","22","male","right","Graduated High School","german","","1595356488621","11.604633333333334","INSERT_A_NUMBER",
"main","44","j","correct","2915","images/large_stimulus.jpg","f","j","small","large","large","compatible","Tue Jul 21 2020 20:23:12 GMT+0200 (Central European Summer Time)","1595355792343","22","male","right","Graduated High School","german","","1595356488621","11.604633333333334","INSERT_A_NUMBER",
"main","45","j","correct","2960","images/large_stimulus.jpg","f","j","small","large","large","compatible","Tue Jul 21 2020 20:23:12 GMT+0200 (Central European Summer Time)","1595355792343","22","male","right","Graduated High School","german","","1595356488621","11.604633333333334","INSERT_A_NUMBER",
"main","46","f","correct","2991","images/small_stimulus.jpg","f","j","small","large","small","compatible","Tue Jul 21 2020 20:23:12 GMT+0200 (Central European Summer Time)","1595355792343","22","male","right","Graduated High School","german","","1595356488621","11.604633333333334","INSERT_A_NUMBER",
"main","47","j","correct","3015","images/large_stimulus.jpg","f","j","small","large","large","compatible","Tue Jul 21 2020 20:23:12 GMT+0200 (Central European Summer Time)","1595355792343","22","male","right","Graduated High School","german","","1595356488621","11.604633333333334","INSERT_A_NUMBER",
"main","48","j","correct","3002","images/large_stimulus.jpg","f","j","small","large","large","compatible","Tue Jul 21 2020 20:23:12 GMT+0200 (Central European Summer Time)","1595355792343","22","male","right","Graduated High School","german","","1595356488621","11.604633333333334","INSERT_A_NUMBER",
"main","49","j","correct","3011","images/large_stimulus.jpg","f","j","small","large","large","compatible","Tue Jul 21 2020 20:23:12 GMT+0200 (Central European Summer Time)","1595355792343","22","male","right","Graduated High School","german","","1595356488621","11.604633333333334","INSERT_A_NUMBER",
"main","50","f","correct","2975","images/small_stimulus.jpg","f","j","small","large","small","compatible","Tue Jul 21 2020 20:23:12 GMT+0200 (Central European Summer Time)","1595355792343","22","male","right","Graduated High School","german","","1595356488621","11.604633333333334","INSERT_A_NUMBER",
"main","51","f","correct","3202","images/small_stimulus.jpg","f","j","small","large","small","compatible","Tue Jul 21 2020 20:23:12 GMT+0200 (Central European Summer Time)","1595355792343","22","male","right","Graduated High School","german","","1595356488621","11.604633333333334","INSERT_A_NUMBER",
"main","52","j","correct","2951","images/large_stimulus.jpg","f","j","small","large","large","compatible","Tue Jul 21 2020 20:23:12 GMT+0200 (Central European Summer Time)","1595355792343","22","male","right","Graduated High School","german","","1595356488621","11.604633333333334","INSERT_A_NUMBER",
"main","53","f","correct","2954","images/small_stimulus.jpg","f","j","small","large","small","compatible","Tue Jul 21 2020 20:23:12 GMT+0200 (Central European Summer Time)","1595355792343","22","male","right","Graduated High School","german","","1595356488621","11.604633333333334","INSERT_A_NUMBER",
"main","54","f","correct","2885","images/small_stimulus.jpg","f","j","small","large","small","compatible","Tue Jul 21 2020 20:23:12 GMT+0200 (Central European Summer Time)","1595355792343","22","male","right","Graduated High School","german","","1595356488621","11.604633333333334","INSERT_A_NUMBER",
"main","55","f","correct","2959","images/small_stimulus.jpg","f","j","small","large","small","compatible","Tue Jul 21 2020 20:23:12 GMT+0200 (Central European Summer Time)","1595355792343","22","male","right","Graduated High School","german","","1595356488621","11.604633333333334","INSERT_A_NUMBER",
"main","56","f","correct","2965","images/small_stimulus.jpg","f","j","small","large","small","compatible","Tue Jul 21 2020 20:23:12 GMT+0200 (Central European Summer Time)","1595355792343","22","male","right","Graduated High School","german","","1595356488621","11.604633333333334","INSERT_A_NUMBER",
"main","57","f","correct","2953","images/small_stimulus.jpg","f","j","small","large","small","compatible","Tue Jul 21 2020 20:23:12 GMT+0200 (Central European Summer Time)","1595355792343","22","male","right","Graduated High School","german","","1595356488621","11.604633333333334","INSERT_A_NUMBER",
"main","58","f","correct","2956","images/small_stimulus.jpg","f","j","small","large","small","compatible","Tue Jul 21 2020 20:23:12 GMT+0200 (Central European Summer Time)","1595355792343","22","male","right","Graduated High School","german","","1595356488621","11.604633333333334","INSERT_A_NUMBER",
"main","59","j","correct","2994","images/large_stimulus.jpg","f","j","small","large","large","compatible","Tue Jul 21 2020 20:23:12 GMT+0200 (Central European Summer Time)","1595355792343","22","male","right","Graduated High School","german","","1595356488621","11.604633333333334","INSERT_A_NUMBER",
"main","60","j","correct","2999","images/large_stimulus.jpg","f","j","small","large","large","compatible","Tue Jul 21 2020 20:23:12 GMT+0200 (Central European Summer Time)","1595355792343","22","male","right","Graduated High School","german","","1595356488621","11.604633333333334","INSERT_A_NUMBER",
"practice","1","j","correct","2912","images/small_stimulus.jpg","f","j","large","small","small","incompatible","Tue Jul 21 2020 20:23:12 GMT+0200 (Central European Summer Time)","1595355792343","22","male","right","Graduated High School","german","","1595356488621","11.604633333333334","INSERT_A_NUMBER",
"practice","2","j","correct","2947","images/small_stimulus.jpg","f","j","large","small","small","incompatible","Tue Jul 21 2020 20:23:12 GMT+0200 (Central European Summer Time)","1595355792343","22","male","right","Graduated High School","german","","1595356488621","11.604633333333334","INSERT_A_NUMBER",
"practice","3","f","correct","2917","images/large_stimulus.jpg","f","j","large","small","large","incompatible","Tue Jul 21 2020 20:23:12 GMT+0200 (Central European Summer Time)","1595355792343","22","male","right","Graduated High School","german","","1595356488621","11.604633333333334","INSERT_A_NUMBER",
"practice","4","j","correct","3709","images/small_stimulus.jpg","f","j","large","small","small","incompatible","Tue Jul 21 2020 20:23:12 GMT+0200 (Central European Summer Time)","1595355792343","22","male","right","Graduated High School","german","","1595356488621","11.604633333333334","INSERT_A_NUMBER",
"practice","5","j","correct","3376","images/small_stimulus.jpg","f","j","large","small","small","incompatible","Tue Jul 21 2020 20:23:12 GMT+0200 (Central European Summer Time)","1595355792343","22","male","right","Graduated High School","german","","1595356488621","11.604633333333334","INSERT_A_NUMBER",
"practice","6","f","correct","3106","images/large_stimulus.jpg","f","j","large","small","large","incompatible","Tue Jul 21 2020 20:23:12 GMT+0200 (Central European Summer Time)","1595355792343","22","male","right","Graduated High School","german","","1595356488621","11.604633333333334","INSERT_A_NUMBER",
"practice","7","f","incorrect","3172","images/small_stimulus.jpg","f","j","large","small","small","incompatible","Tue Jul 21 2020 20:23:12 GMT+0200 (Central European Summer Time)","1595355792343","22","male","right","Graduated High School","german","","1595356488621","11.604633333333334","INSERT_A_NUMBER",
"practice","8","j","correct","3087","images/small_stimulus.jpg","f","j","large","small","small","incompatible","Tue Jul 21 2020 20:23:12 GMT+0200 (Central European Summer Time)","1595355792343","22","male","right","Graduated High School","german","","1595356488621","11.604633333333334","INSERT_A_NUMBER",
"practice","9","j","correct","2893","images/small_stimulus.jpg","f","j","large","small","small","incompatible","Tue Jul 21 2020 20:23:12 GMT+0200 (Central European Summer Time)","1595355792343","22","male","right","Graduated High School","german","","1595356488621","11.604633333333334","INSERT_A_NUMBER",
"practice","10","j","correct","2916","images/small_stimulus.jpg","f","j","large","small","small","incompatible","Tue Jul 21 2020 20:23:12 GMT+0200 (Central European Summer Time)","1595355792343","22","male","right","Graduated High School","german","","1595356488621","11.604633333333334","INSERT_A_NUMBER",
"practice","11","f","correct","3076","images/large_stimulus.jpg","f","j","large","small","large","incompatible","Tue Jul 21 2020 20:23:12 GMT+0200 (Central European Summer Time)","1595355792343","22","male","right","Graduated High School","german","","1595356488621","11.604633333333334","INSERT_A_NUMBER",
"practice","12","j","correct","3165","images/small_stimulus.jpg","f","j","large","small","small","incompatible","Tue Jul 21 2020 20:23:12 GMT+0200 (Central European Summer Time)","1595355792343","22","male","right","Graduated High School","german","","1595356488621","11.604633333333334","INSERT_A_NUMBER",
"practice","13","f","correct","2868","images/large_stimulus.jpg","f","j","large","small","large","incompatible","Tue Jul 21 2020 20:23:12 GMT+0200 (Central European Summer Time)","1595355792343","22","male","right","Graduated High School","german","","1595356488621","11.604633333333334","INSERT_A_NUMBER",
"practice","14","f","correct","3194","images/large_stimulus.jpg","f","j","large","small","large","incompatible","Tue Jul 21 2020 20:23:12 GMT+0200 (Central European Summer Time)","1595355792343","22","male","right","Graduated High School","german","","1595356488621","11.604633333333334","INSERT_A_NUMBER",
"practice","15","j","correct","3048","images/small_stimulus.jpg","f","j","large","small","small","incompatible","Tue Jul 21 2020 20:23:12 GMT+0200 (Central European Summer Time)","1595355792343","22","male","right","Graduated High School","german","","1595356488621","11.604633333333334","INSERT_A_NUMBER",
"practice","16","j","correct","3324","images/small_stimulus.jpg","f","j","large","small","small","incompatible","Tue Jul 21 2020 20:23:12 GMT+0200 (Central European Summer Time)","1595355792343","22","male","right","Graduated High School","german","","1595356488621","11.604633333333334","INSERT_A_NUMBER",
"practice","17","f","correct","2986","images/large_stimulus.jpg","f","j","large","small","large","incompatible","Tue Jul 21 2020 20:23:12 GMT+0200 (Central European Summer Time)","1595355792343","22","male","right","Graduated High School","german","","1595356488621","11.604633333333334","INSERT_A_NUMBER",
"practice","18","j","incorrect","3022","images/large_stimulus.jpg","f","j","large","small","large","incompatible","Tue Jul 21 2020 20:23:12 GMT+0200 (Central European Summer Time)","1595355792343","22","male","right","Graduated High School","german","","1595356488621","11.604633333333334","INSERT_A_NUMBER",
"practice","19","f","correct","3100","images/large_stimulus.jpg","f","j","large","small","large","incompatible","Tue Jul 21 2020 20:23:12 GMT+0200 (Central European Summer Time)","1595355792343","22","male","right","Graduated High School","german","","1595356488621","11.604633333333334","INSERT_A_NUMBER",
"practice","20","j","incorrect","3052","images/large_stimulus.jpg","f","j","large","small","large","incompatible","Tue Jul 21 2020 20:23:12 GMT+0200 (Central European Summer Time)","1595355792343","22","male","right","Graduated High School","german","","1595356488621","11.604633333333334","INSERT_A_NUMBER",
"main","1","j","correct","3054","images/small_stimulus.jpg","f","j","large","small","small","incompatible","Tue Jul 21 2020 20:23:12 GMT+0200 (Central European Summer Time)","1595355792343","22","male","right","Graduated High School","german","","1595356488621","11.604633333333334","INSERT_A_NUMBER",
"main","2","j","correct","2937","images/small_stimulus.jpg","f","j","large","small","small","incompatible","Tue Jul 21 2020 20:23:12 GMT+0200 (Central European Summer Time)","1595355792343","22","male","right","Graduated High School","german","","1595356488621","11.604633333333334","INSERT_A_NUMBER",
"main","3","f","correct","2947","images/large_stimulus.jpg","f","j","large","small","large","incompatible","Tue Jul 21 2020 20:23:12 GMT+0200 (Central European Summer Time)","1595355792343","22","male","right","Graduated High School","german","","1595356488621","11.604633333333334","INSERT_A_NUMBER",
"main","4","f","incorrect","2926","images/small_stimulus.jpg","f","j","large","small","small","incompatible","Tue Jul 21 2020 20:23:12 GMT+0200 (Central European Summer Time)","1595355792343","22","male","right","Graduated High School","german","","1595356488621","11.604633333333334","INSERT_A_NUMBER",
"main","5","j","incorrect","3054","images/large_stimulus.jpg","f","j","large","small","large","incompatible","Tue Jul 21 2020 20:23:12 GMT+0200 (Central European Summer Time)","1595355792343","22","male","right","Graduated High School","german","","1595356488621","11.604633333333334","INSERT_A_NUMBER",
"main","6","f","correct","3165","images/large_stimulus.jpg","f","j","large","small","large","incompatible","Tue Jul 21 2020 20:23:12 GMT+0200 (Central European Summer Time)","1595355792343","22","male","right","Graduated High School","german","","1595356488621","11.604633333333334","INSERT_A_NUMBER",
"main","7","j","correct","3173","images/small_stimulus.jpg","f","j","large","small","small","incompatible","Tue Jul 21 2020 20:23:12 GMT+0200 (Central European Summer Time)","1595355792343","22","male","right","Graduated High School","german","","1595356488621","11.604633333333334","INSERT_A_NUMBER",
"main","8","j","correct","3233","images/small_stimulus.jpg","f","j","large","small","small","incompatible","Tue Jul 21 2020 20:23:12 GMT+0200 (Central European Summer Time)","1595355792343","22","male","right","Graduated High School","german","","1595356488621","11.604633333333334","INSERT_A_NUMBER",
"main","9","f","correct","2965","images/large_stimulus.jpg","f","j","large","small","large","incompatible","Tue Jul 21 2020 20:23:12 GMT+0200 (Central European Summer Time)","1595355792343","22","male","right","Graduated High School","german","","1595356488621","11.604633333333334","INSERT_A_NUMBER",
"main","10","j","correct","2963","images/small_stimulus.jpg","f","j","large","small","small","incompatible","Tue Jul 21 2020 20:23:12 GMT+0200 (Central European Summer Time)","1595355792343","22","male","right","Graduated High School","german","","1595356488621","11.604633333333334","INSERT_A_NUMBER",
"main","11","f","correct","2984","images/large_stimulus.jpg","f","j","large","small","large","incompatible","Tue Jul 21 2020 20:23:12 GMT+0200 (Central European Summer Time)","1595355792343","22","male","right","Graduated High School","german","","1595356488621","11.604633333333334","INSERT_A_NUMBER",
"main","12","j","incorrect","3224","images/large_stimulus.jpg","f","j","large","small","large","incompatible","Tue Jul 21 2020 20:23:12 GMT+0200 (Central European Summer Time)","1595355792343","22","male","right","Graduated High School","german","","1595356488621","11.604633333333334","INSERT_A_NUMBER",
"main","13","f","incorrect","3114","images/small_stimulus.jpg","f","j","large","small","small","incompatible","Tue Jul 21 2020 20:23:12 GMT+0200 (Central European Summer Time)","1595355792343","22","male","right","Graduated High School","german","","1595356488621","11.604633333333334","INSERT_A_NUMBER",
"main","14","f","correct","3365","images/large_stimulus.jpg","f","j","large","small","large","incompatible","Tue Jul 21 2020 20:23:12 GMT+0200 (Central European Summer Time)","1595355792343","22","male","right","Graduated High School","german","","1595356488621","11.604633333333334","INSERT_A_NUMBER",
"main","15","f","correct","3559","images/large_stimulus.jpg","f","j","large","small","large","incompatible","Tue Jul 21 2020 20:23:12 GMT+0200 (Central European Summer Time)","1595355792343","22","male","right","Graduated High School","german","","1595356488621","11.604633333333334","INSERT_A_NUMBER",
"main","16","f","correct","3025","images/large_stimulus.jpg","f","j","large","small","large","incompatible","Tue Jul 21 2020 20:23:12 GMT+0200 (Central European Summer Time)","1595355792343","22","male","right","Graduated High School","german","","1595356488621","11.604633333333334","INSERT_A_NUMBER",
"main","17","j","correct","3077","images/small_stimulus.jpg","f","j","large","small","small","incompatible","Tue Jul 21 2020 20:23:12 GMT+0200 (Central European Summer Time)","1595355792343","22","male","right","Graduated High School","german","","1595356488621","11.604633333333334","INSERT_A_NUMBER",
"main","18","f","correct","3061","images/large_stimulus.jpg","f","j","large","small","large","incompatible","Tue Jul 21 2020 20:23:12 GMT+0200 (Central European Summer Time)","1595355792343","22","male","right","Graduated High School","german","","1595356488621","11.604633333333334","INSERT_A_NUMBER",
"main","19","j","correct","3068","images/small_stimulus.jpg","f","j","large","small","small","incompatible","Tue Jul 21 2020 20:23:12 GMT+0200 (Central European Summer Time)","1595355792343","22","male","right","Graduated High School","german","","1595356488621","11.604633333333334","INSERT_A_NUMBER",
"main","20","f","incorrect","3100","images/small_stimulus.jpg","f","j","large","small","small","incompatible","Tue Jul 21 2020 20:23:12 GMT+0200 (Central European Summer Time)","1595355792343","22","male","right","Graduated High School","german","","1595356488621","11.604633333333334","INSERT_A_NUMBER",
"main","21","j","correct","3158","images/small_stimulus.jpg","f","j","large","small","small","incompatible","Tue Jul 21 2020 20:23:12 GMT+0200 (Central European Summer Time)","1595355792343","22","male","right","Graduated High School","german","","1595356488621","11.604633333333334","INSERT_A_NUMBER",
"main","22","f","correct","3002","images/large_stimulus.jpg","f","j","large","small","large","incompatible","Tue Jul 21 2020 20:23:12 GMT+0200 (Central European Summer Time)","1595355792343","22","male","right","Graduated High School","german","","1595356488621","11.604633333333334","INSERT_A_NUMBER",
"main","23","j","correct","3486","images/small_stimulus.jpg","f","j","large","small","small","incompatible","Tue Jul 21 2020 20:23:12 GMT+0200 (Central European Summer Time)","1595355792343","22","male","right","Graduated High School","german","","1595356488621","11.604633333333334","INSERT_A_NUMBER",
"main","24","f","correct","2995","images/large_stimulus.jpg","f","j","large","small","large","incompatible","Tue Jul 21 2020 20:23:12 GMT+0200 (Central European Summer Time)","1595355792343","22","male","right","Graduated High School","german","","1595356488621","11.604633333333334","INSERT_A_NUMBER",
"main","25","j","correct","3091","images/small_stimulus.jpg","f","j","large","small","small","incompatible","Tue Jul 21 2020 20:23:12 GMT+0200 (Central European Summer Time)","1595355792343","22","male","right","Graduated High School","german","","1595356488621","11.604633333333334","INSERT_A_NUMBER",
"main","26","j","correct","2987","images/small_stimulus.jpg","f","j","large","small","small","incompatible","Tue Jul 21 2020 20:23:12 GMT+0200 (Central European Summer Time)","1595355792343","22","male","right","Graduated High School","german","","1595356488621","11.604633333333334","INSERT_A_NUMBER",
"main","27","f","correct","3026","images/large_stimulus.jpg","f","j","large","small","large","incompatible","Tue Jul 21 2020 20:23:12 GMT+0200 (Central European Summer Time)","1595355792343","22","male","right","Graduated High School","german","","1595356488621","11.604633333333334","INSERT_A_NUMBER",
"main","28","j","correct","3201","images/small_stimulus.jpg","f","j","large","small","small","incompatible","Tue Jul 21 2020 20:23:12 GMT+0200 (Central European Summer Time)","1595355792343","22","male","right","Graduated High School","german","","1595356488621","11.604633333333334","INSERT_A_NUMBER",
"main","29","j","correct","3009","images/small_stimulus.jpg","f","j","large","small","small","incompatible","Tue Jul 21 2020 20:23:12 GMT+0200 (Central European Summer Time)","1595355792343","22","male","right","Graduated High School","german","","1595356488621","11.604633333333334","INSERT_A_NUMBER",
"main","30","j","correct","3043","images/small_stimulus.jpg","f","j","large","small","small","incompatible","Tue Jul 21 2020 20:23:12 GMT+0200 (Central European Summer Time)","1595355792343","22","male","right","Graduated High School","german","","1595356488621","11.604633333333334","INSERT_A_NUMBER",
"main","31","j","correct","2881","images/small_stimulus.jpg","f","j","large","small","small","incompatible","Tue Jul 21 2020 20:23:12 GMT+0200 (Central European Summer Time)","1595355792343","22","male","right","Graduated High School","german","","1595356488621","11.604633333333334","INSERT_A_NUMBER",
"main","32","f","correct","2961","images/large_stimulus.jpg","f","j","large","small","large","incompatible","Tue Jul 21 2020 20:23:12 GMT+0200 (Central European Summer Time)","1595355792343","22","male","right","Graduated High School","german","","1595356488621","11.604633333333334","INSERT_A_NUMBER",
"main","33","j","correct","3131","images/small_stimulus.jpg","f","j","large","small","small","incompatible","Tue Jul 21 2020 20:23:12 GMT+0200 (Central European Summer Time)","1595355792343","22","male","right","Graduated High School","german","","1595356488621","11.604633333333334","INSERT_A_NUMBER",
"main","34","f","correct","3109","images/large_stimulus.jpg","f","j","large","small","large","incompatible","Tue Jul 21 2020 20:23:12 GMT+0200 (Central European Summer Time)","1595355792343","22","male","right","Graduated High School","german","","1595356488621","11.604633333333334","INSERT_A_NUMBER",
"main","35","j","correct","3187","images/small_stimulus.jpg","f","j","large","small","small","incompatible","Tue Jul 21 2020 20:23:12 GMT+0200 (Central European Summer Time)","1595355792343","22","male","right","Graduated High School","german","","1595356488621","11.604633333333334","INSERT_A_NUMBER",
"main","36","f","correct","2988","images/large_stimulus.jpg","f","j","large","small","large","incompatible","Tue Jul 21 2020 20:23:12 GMT+0200 (Central European Summer Time)","1595355792343","22","male","right","Graduated High School","german","","1595356488621","11.604633333333334","INSERT_A_NUMBER",
"main","37","j","correct","3054","images/small_stimulus.jpg","f","j","large","small","small","incompatible","Tue Jul 21 2020 20:23:12 GMT+0200 (Central European Summer Time)","1595355792343","22","male","right","Graduated High School","german","","1595356488621","11.604633333333334","INSERT_A_NUMBER",
"main","38","j","correct","3151","images/small_stimulus.jpg","f","j","large","small","small","incompatible","Tue Jul 21 2020 20:23:12 GMT+0200 (Central European Summer Time)","1595355792343","22","male","right","Graduated High School","german","","1595356488621","11.604633333333334","INSERT_A_NUMBER",
"main","39","f","correct","2979","images/large_stimulus.jpg","f","j","large","small","large","incompatible","Tue Jul 21 2020 20:23:12 GMT+0200 (Central European Summer Time)","1595355792343","22","male","right","Graduated High School","german","","1595356488621","11.604633333333334","INSERT_A_NUMBER",
"main","40","j","correct","2906","images/small_stimulus.jpg","f","j","large","small","small","incompatible","Tue Jul 21 2020 20:23:12 GMT+0200 (Central European Summer Time)","1595355792343","22","male","right","Graduated High School","german","","1595356488621","11.604633333333334","INSERT_A_NUMBER",
"main","41","j","correct","2896","images/small_stimulus.jpg","f","j","large","small","small","incompatible","Tue Jul 21 2020 20:23:12 GMT+0200 (Central European Summer Time)","1595355792343","22","male","right","Graduated High School","german","","1595356488621","11.604633333333334","INSERT_A_NUMBER",
"main","42","f","correct","2972","images/large_stimulus.jpg","f","j","large","small","large","incompatible","Tue Jul 21 2020 20:23:12 GMT+0200 (Central European Summer Time)","1595355792343","22","male","right","Graduated High School","german","","1595356488621","11.604633333333334","INSERT_A_NUMBER",
"main","43","j","incorrect","2976","images/large_stimulus.jpg","f","j","large","small","large","incompatible","Tue Jul 21 2020 20:23:12 GMT+0200 (Central European Summer Time)","1595355792343","22","male","right","Graduated High School","german","","1595356488621","11.604633333333334","INSERT_A_NUMBER",
"main","44","f","incorrect","3131","images/small_stimulus.jpg","f","j","large","small","small","incompatible","Tue Jul 21 2020 20:23:12 GMT+0200 (Central European Summer Time)","1595355792343","22","male","right","Graduated High School","german","","1595356488621","11.604633333333334","INSERT_A_NUMBER",
"main","45","j","correct","3491","images/small_stimulus.jpg","f","j","large","small","small","incompatible","Tue Jul 21 2020 20:23:12 GMT+0200 (Central European Summer Time)","1595355792343","22","male","right","Graduated High School","german","","1595356488621","11.604633333333334","INSERT_A_NUMBER",
"main","46","j","correct","2974","images/small_stimulus.jpg","f","j","large","small","small","incompatible","Tue Jul 21 2020 20:23:12 GMT+0200 (Central European Summer Time)","1595355792343","22","male","right","Graduated High School","german","","1595356488621","11.604633333333334","INSERT_A_NUMBER",
"main","47","j","correct","2952","images/small_stimulus.jpg","f","j","large","small","small","incompatible","Tue Jul 21 2020 20:23:12 GMT+0200 (Central European Summer Time)","1595355792343","22","male","right","Graduated High School","german","","1595356488621","11.604633333333334","INSERT_A_NUMBER",
"main","48","f","correct","3343","images/large_stimulus.jpg","f","j","large","small","large","incompatible","Tue Jul 21 2020 20:23:12 GMT+0200 (Central European Summer Time)","1595355792343","22","male","right","Graduated High School","german","","1595356488621","11.604633333333334","INSERT_A_NUMBER",
"main","49","f","correct","3097","images/large_stimulus.jpg","f","j","large","small","large","incompatible","Tue Jul 21 2020 20:23:12 GMT+0200 (Central European Summer Time)","1595355792343","22","male","right","Graduated High School","german","","1595356488621","11.604633333333334","INSERT_A_NUMBER",
"main","50","f","correct","2977","images/large_stimulus.jpg","f","j","large","small","large","incompatible","Tue Jul 21 2020 20:23:12 GMT+0200 (Central European Summer Time)","1595355792343","22","male","right","Graduated High School","german","","1595356488621","11.604633333333334","INSERT_A_NUMBER",
"main","51","f","correct","2926","images/large_stimulus.jpg","f","j","large","small","large","incompatible","Tue Jul 21 2020 20:23:12 GMT+0200 (Central European Summer Time)","1595355792343","22","male","right","Graduated High School","german","","1595356488621","11.604633333333334","INSERT_A_NUMBER",
"main","52","f","correct","2902","images/large_stimulus.jpg","f","j","large","small","large","incompatible","Tue Jul 21 2020 20:23:12 GMT+0200 (Central European Summer Time)","1595355792343","22","male","right","Graduated High School","german","","1595356488621","11.604633333333334","INSERT_A_NUMBER",
"main","53","j","correct","2941","images/small_stimulus.jpg","f","j","large","small","small","incompatible","Tue Jul 21 2020 20:23:12 GMT+0200 (Central European Summer Time)","1595355792343","22","male","right","Graduated High School","german","","1595356488621","11.604633333333334","INSERT_A_NUMBER",
"main","54","f","correct","2995","images/large_stimulus.jpg","f","j","large","small","large","incompatible","Tue Jul 21 2020 20:23:12 GMT+0200 (Central European Summer Time)","1595355792343","22","male","right","Graduated High School","german","","1595356488621","11.604633333333334","INSERT_A_NUMBER",
"main","55","j","correct","2959","images/small_stimulus.jpg","f","j","large","small","small","incompatible","Tue Jul 21 2020 20:23:12 GMT+0200 (Central European Summer Time)","1595355792343","22","male","right","Graduated High School","german","","1595356488621","11.604633333333334","INSERT_A_NUMBER",
"main","56","f","correct","2903","images/large_stimulus.jpg","f","j","large","small","large","incompatible","Tue Jul 21 2020 20:23:12 GMT+0200 (Central European Summer Time)","1595355792343","22","male","right","Graduated High School","german","","1595356488621","11.604633333333334","INSERT_A_NUMBER",
"main","57","j","incorrect","3095","images/large_stimulus.jpg","f","j","large","small","large","incompatible","Tue Jul 21 2020 20:23:12 GMT+0200 (Central European Summer Time)","1595355792343","22","male","right","Graduated High School","german","","1595356488621","11.604633333333334","INSERT_A_NUMBER",
"main","58","f","correct","3073","images/large_stimulus.jpg","f","j","large","small","large","incompatible","Tue Jul 21 2020 20:23:12 GMT+0200 (Central European Summer Time)","1595355792343","22","male","right","Graduated High School","german","","1595356488621","11.604633333333334","INSERT_A_NUMBER",
"main","59","f","correct","3142","images/large_stimulus.jpg","f","j","large","small","large","incompatible","Tue Jul 21 2020 20:23:12 GMT+0200 (Central European Summer Time)","1595355792343","22","male","right","Graduated High School","german","","1595356488621","11.604633333333334","INSERT_A_NUMBER",
"main","60","j","incorrect","3159","images/large_stimulus.jpg","f","j","large","small","large","incompatible","Tue Jul 21 2020 20:23:12 GMT+0200 (Central European Summer Time)","1595355792343","22","male","right","Graduated High School","german","","1595356488621","11.604633333333334","INSERT_A_NUMBER",
